sampleTimeFine,W4_acc_x,W4_acc_y,W4_acc_z,W4_gyro_x,W4_gyro_y,W4_gyro_z,W4_quat_w,W4_quat_x,W4_quat_y,W4_quat_z,W5_acc_x,W5_acc_y,W5_acc_z,W5_gyro_x,W5_gyro_y,W5_gyro_z,W5_quat_w,W5_quat_x,W5_quat_y,W5_quat_z
1350458,0.154937327,-0.097079925,0.170420423,-0.367202967,0.133381844,-0.307589769,0.701056004,-0.334825814,-0.459276557,-0.430670589,0.108681723,0.265271604,-0.408715278,0.011713996,0.192399517,-0.441809505,0.385988235,-0.58945775,-0.485568404,-0.517470658
1350625,9.167905807,-0.721204698,3.459000111,0.590468764,-0.887800157,0.421655446,0.701433122,-0.334391207,-0.459752649,-0.429885507,9.631602287,0.468940914,-1.612744331,0.004168467,-0.395575345,0.573884487,0.385457486,-0.589916348,-0.48510325,-0.517779946
1350791,9.147764206,-0.700009108,3.44397974,0.486096978,-0.981337667,0.393968105,0.701351702,-0.334436536,-0.460040092,-0.429675817,9.626860619,0.488863975,-1.642004848,-0.167302147,-0.501739919,0.623982906,0.385427445,-0.589969218,-0.484967679,-0.517869115
1350958,9.183952332,-0.686034799,3.455269337,0.470844597,-0.971399963,0.283833534,0.701183558,-0.334430456,-0.460386872,-0.429583371,9.639479637,0.491437256,-1.623905182,-0.723289847,-0.541862249,0.510877311,0.385169715,-0.590093672,-0.484940618,-0.517944515
1351458,9.174355507,-0.690381527,3.450077534,0.420669407,-0.872880816,0.133666277,0.700810909,-0.334242195,-0.461304754,-0.429353416,9.652669907,0.474080473,-1.619169593,-1.022561431,-0.463282555,0.42364049,0.384956896,-0.590138614,-0.484930038,-0.518061459
1351625,9.160605431,-0.6846506,3.462580442,0.102790155,-0.803034902,0.091853529,0.700582802,-0.334362745,-0.461398333,-0.429530948,9.648024559,0.452619046,-1.655947685,-1.169885755,-0.266641021,0.629208028,0.384741396,-0.590297878,-0.484705269,-0.518250227
1351791,9.152674675,-0.713228941,3.442982435,0.003028702,-0.846781433,0.158574626,0.700449049,-0.334413171,-0.46149677,-0.429604053,9.682217598,0.458580643,-1.638999343,-1.182064414,-0.218822092,0.795933843,0.384645939,-0.590470374,-0.484542698,-0.518276691
1351958,9.202346802,-0.733276248,3.478337288,-0.187433735,-0.739822805,0.111498475,0.700361907,-0.334465116,-0.4615677,-0.429629683,9.663902283,0.427248716,-1.632259369,-1.199762821,0.105658785,0.675054669,0.384632856,-0.590572417,-0.48440516,-0.518298507
1352125,9.186239243,-0.722955346,3.466814756,-0.036843866,-0.671782672,-0.026726851,0.700289607,-0.334518552,-0.461605221,-0.429665655,9.600149155,0.40163064,-1.629789352,-0.910826147,0.038899288,0.741109848,0.384657443,-0.590706289,-0.484229565,-0.518292069
1352291,9.173168182,-0.723552585,3.434221029,0.052333146,-0.756176472,0.153452069,0.700190067,-0.334637403,-0.461598605,-0.429742396,9.590024948,0.371613026,-1.669935584,-0.469365478,-0.378709376,0.79749614,0.384806663,-0.590788364,-0.484186471,-0.518127978
1352458,9.194382668,-0.737556994,3.349633217,0.271949232,-0.619186938,0.4029966,0.700087309,-0.334793985,-0.461553514,-0.429836124,9.637961388,0.396537632,-1.683156133,0.27387017,-0.436555624,0.889445782,0.384937763,-0.590960681,-0.484086722,-0.51792717
1352625,9.273438454,-0.765762568,3.374119282,0.03261137,0.136522084,0.091328487,0.699999273,-0.334922373,-0.461472929,-0.429966033,9.671182632,0.442193359,-1.638958097,0.673620343,-0.484297723,0.422923297,0.385133475,-0.591014445,-0.484164089,-0.517648041
1352791,9.16486454,-0.673017204,3.461604118,0.185416743,-0.348921835,-0.472464681,0.699894309,-0.334996164,-0.461535335,-0.430012494,9.718815804,0.45854494,-1.62584424,0.664514959,-0.030850494,0.070210807,0.385308206,-0.590995252,-0.484241337,-0.517467439
1352958,9.213418961,-0.688026547,3.466063738,0.125828788,0.148355171,-0.502329051,0.699864089,-0.334972262,-0.461569071,-0.430044144,9.680657387,0.460336566,-1.628715634,0.613084793,0.51424545,0.128915116,0.385557115,-0.590873301,-0.484337121,-0.517331779
1353125,9.152136803,-0.73565805,3.508087635,0.033341326,0.148713723,0.214423105,0.699866176,-0.335003883,-0.461548537,-0.430038005,9.639904022,0.475679606,-1.62326014,0.71289742,0.692714632,0.291145951,0.385810971,-0.590743959,-0.484403133,-0.517228365
1353291,9.103668213,-0.738898098,3.474821806,0.524516106,-0.260481149,0.514475882,0.699821413,-0.33510682,-0.461502701,-0.430079877,9.62494278,0.516407669,-1.608540177,0.340937048,0.676335335,0.496226758,0.386042327,-0.590630293,-0.48444289,-0.517148435
1353458,9.132945061,-0.688983917,3.47175622,0.931322575,-0.634503424,0.57672745,0.699851274,-0.33512184,-0.461555153,-0.429963499,9.62403965,0.508939564,-1.584161878,-0.055489913,0.763802707,0.846621335,0.386213392,-0.590579748,-0.484381855,-0.517135441
1353625,9.180420876,-0.674368978,3.479213476,0.391048253,-0.558331192,0.4225775,0.69978863,-0.335235566,-0.461522013,-0.430012107,9.606764793,0.492462903,-1.575088739,-0.395524144,0.629003108,1.085741639,0.386353672,-0.590564013,-0.484284133,-0.51714015
1353791,9.134749413,-0.693405151,3.453357458,0.013581133,-0.429051131,0.284012794,0.699774623,-0.335289329,-0.461513489,-0.430002213,9.617754936,0.465372682,-1.581579089,-0.485629618,0.449330032,1.16800952,0.386482149,-0.590559423,-0.48418957,-0.517137945
1353958,9.146164894,-0.715731382,3.444889069,0.285434306,-0.402593195,0.517677367,0.699757218,-0.335361809,-0.461482972,-0.430006802,9.632376671,0.419263721,-1.59147191,-0.254001141,0.178757414,1.189511418,0.386699319,-0.590481222,-0.484221756,-0.51703465
1354125,9.149665833,-0.709437251,3.409995794,0.36880368,-0.335398316,0.435985774,0.699753821,-0.335405827,-0.461463481,-0.429998934,9.624998093,0.396268219,-1.601058125,0.274753839,-0.032822676,1.090172648,0.386903018,-0.590424538,-0.484261483,-0.516909778
1354291,9.171970367,-0.678917944,3.431699991,0.063128904,-0.234279379,0.523017764,0.699744761,-0.335483164,-0.461414695,-0.430005729,9.638143539,0.413899213,-1.615137458,0.663170397,-0.323219448,0.675579667,0.38705793,-0.590377092,-0.484337121,-0.516777158
1354458,9.18273735,-0.71693325,3.416730165,0.047095347,-0.367670298,0.306078166,0.699691176,-0.335573733,-0.46137917,-0.430060297,9.664181709,0.441115767,-1.619472265,0.83062619,-0.354620636,0.380598277,0.387201279,-0.590307832,-0.484448612,-0.516644359
1354625,9.175250053,-0.715842247,3.451637268,0.460970968,-0.341327637,0.160136998,0.699691832,-0.335566938,-0.46141085,-0.430030674,9.621299744,0.447219014,-1.623598099,0.66730684,-0.389978945,0.084182546,0.387338281,-0.590198457,-0.484615833,-0.516509771
1354791,9.160691261,-0.686996698,3.463338852,0.913790762,-0.802061677,0.43402642,0.699686587,-0.335576892,-0.461492836,-0.429943383,9.662623405,0.444636464,-1.654306293,0.581248164,-0.624079049,0.274869055,0.387444794,-0.590143204,-0.484755099,-0.516362309
1354958,9.225924492,-0.717228532,3.385668993,0.556903303,-0.821591377,0.535580754,0.699666739,-0.335631073,-0.461547554,-0.42987451,9.613175392,0.478185087,-1.644595265,0.610357046,-0.587555289,0.575651824,0.387580484,-0.590102971,-0.484876841,-0.516192198
1355125,9.180836678,-0.737305403,3.457029343,0.660878062,-0.425990403,0.348172605,0.699711025,-0.335590035,-0.461620063,-0.429756731,9.614265442,0.538710475,-1.658502102,0.143655226,-0.816520035,0.374156713,0.387642801,-0.590089381,-0.485001475,-0.516043901
1355291,9.22071743,-0.665964067,3.364758253,0.749613285,-0.953471124,-0.039328296,0.699686408,-0.335563898,-0.461756885,-0.429670036,9.647317886,0.479840815,-1.672388554,-0.494594008,-0.844156086,0.264303863,0.387613386,-0.59012109,-0.485075653,-0.515959799
1355458,9.18294239,-0.654867947,3.432880163,0.712756634,-0.314652026,0.070069939,0.699723125,-0.335489839,-0.461842418,-0.429576069,9.663374901,0.426939964,-1.656018376,-0.600592077,-0.521922767,0.593042791,0.387630999,-0.590147853,-0.485112429,-0.515881538
1355625,9.208637238,-0.722143531,3.403419256,0.1926267,-0.386738956,0.50373137,0.699687839,-0.33557269,-0.461830527,-0.42958194,9.646038055,0.439691454,-1.676744223,-0.468520343,-0.38317883,0.717482209,0.387673497,-0.59017396,-0.485132247,-0.515801191
1355791,9.162106514,-0.745654166,3.449247837,0.439449877,-0.699380338,0.554156363,0.699644566,-0.335656792,-0.461863399,-0.429551274,9.662889481,0.438570499,-1.673943877,-0.298387945,-0.158952415,0.866676092,0.387782305,-0.590162337,-0.485169262,-0.515697658
1355958,9.200910568,-0.697051406,3.416484833,0.587638617,-0.486897469,0.445769846,0.699637055,-0.335685939,-0.461901218,-0.429499954,9.632375717,0.450881153,-1.665700555,-0.198690519,0.155398652,0.800134361,0.387901425,-0.590132952,-0.485184759,-0.515627205
1356125,9.174512863,-0.683291614,3.441992283,0.029435398,-0.364699274,0.222234994,0.699605644,-0.335738599,-0.4619115,-0.429499,9.623556137,0.426237404,-1.666884303,0.023352377,0.248846576,0.611330271,0.388035864,-0.590067327,-0.485233605,-0.515555203
1356291,9.166996002,-0.739091158,3.400171995,-0.029582666,-0.22521244,0.146459818,0.69960016,-0.335755974,-0.461926341,-0.429478317,9.632313728,0.421237886,-1.675002456,0.098461606,0.315682918,0.41216594,0.388174236,-0.589972913,-0.48530969,-0.515487492
1356458,9.185037613,-0.713020742,3.4096241,0.681393802,-0.17035006,0.420182735,0.699644029,-0.335724652,-0.461961567,-0.42939356,9.652494431,0.432384908,-1.654399991,0.309151679,0.486378729,0.372338176,0.388327658,-0.589864314,-0.485380977,-0.51542908
1356625,9.220928192,-0.698368907,3.430258751,0.497315407,0.052038606,0.420887053,0.699674845,-0.3357189,-0.461948454,-0.429361969,9.682930946,0.435901374,-1.634597898,0.318487495,0.753480732,0.302249044,0.388490915,-0.589735329,-0.485437691,-0.515400231
1356791,9.191822052,-0.698494077,3.443201065,0.517062783,0.151070103,0.325069964,0.699693918,-0.335712135,-0.461921453,-0.429365069,9.646190643,0.476858169,-1.645514607,0.285536766,0.855239987,0.353897065,0.388689607,-0.589579165,-0.485511065,-0.515359998
1356958,9.205647469,-0.693487406,3.400794268,0.537002265,0.216280043,0.315606117,0.699726641,-0.33568868,-0.461896062,-0.429357469,9.65728569,0.489768088,-1.634571195,-0.038867272,1.002551436,0.393110126,0.388855129,-0.589448869,-0.485529155,-0.51536721
1357125,9.198552132,-0.69539386,3.439713955,0.420541286,0.466720968,0.403867453,0.699793458,-0.335647792,-0.461849272,-0.429330915,9.644412041,0.476984173,-1.617661715,-0.327253461,1.141295433,0.42604807,0.38901794,-0.589315355,-0.485528171,-0.515397847
1357291,9.179619789,-0.703643799,3.442575216,0.326465875,0.452838987,0.562704563,0.699846148,-0.335647494,-0.461775571,-0.429324627,9.652784348,0.472390741,-1.602321982,-0.518503487,1.124916196,0.611752868,0.389167994,-0.589214206,-0.485487908,-0.51543802
1357458,9.170202255,-0.704136968,3.44086957,0.368124932,0.425586969,0.590058923,0.699897587,-0.335649699,-0.461702794,-0.429317057,9.616995811,0.454992533,-1.586470127,-0.500369728,0.890496016,0.998645604,0.389312267,-0.589174688,-0.485405982,-0.515451431
1357625,9.167928696,-0.710721314,3.431109428,0.365064263,0.518036127,0.641604602,0.699959517,-0.335648775,-0.461618215,-0.429307997,9.614974976,0.449099958,-1.583115816,-0.307928711,0.737690628,0.931758106,0.389475435,-0.589113653,-0.485372156,-0.515429795
1357791,9.169908524,-0.709363937,3.450569391,0.354153186,0.515628517,0.562269211,0.700045645,-0.335611731,-0.461560071,-0.429258913,9.620693207,0.414659858,-1.573568821,-0.060407549,0.586998224,0.873565912,0.389654636,-0.589036465,-0.485380083,-0.515375018
1357958,9.155076981,-0.728251874,3.453711033,0.22587195,0.448023707,0.448190123,0.700113893,-0.335584372,-0.461505711,-0.429227531,9.62635231,0.412683606,-1.57987535,0.256287068,0.42602247,0.600470483,0.389827639,-0.588936925,-0.485439301,-0.5153023
1358125,9.175761223,-0.718481481,3.446694851,0.315170676,0.457359552,0.491847038,0.700190067,-0.335550725,-0.461452603,-0.429186612,9.649250984,0.42144531,-1.582414508,0.516204655,0.294975042,0.579801023,0.390015721,-0.588828802,-0.485528499,-0.515199542
1358291,9.17804718,-0.728894055,3.444881439,0.451852828,0.474827379,0.579557717,0.70028019,-0.335507661,-0.461401969,-0.429127753,9.677869797,0.424092829,-1.596393108,0.760498643,0.222888127,0.608909905,0.390227199,-0.58871001,-0.485641629,-0.51506865
1358458,9.176735878,-0.71851939,3.451768637,0.573103428,0.506420672,0.540063024,0.700375795,-0.335448056,-0.461357176,-0.42906639,9.643828392,0.443305999,-1.59272635,0.814336538,0.269144654,0.449765414,0.390429348,-0.588578761,-0.485762447,-0.514951289
1358625,9.16102314,-0.707860172,3.456100464,0.53004843,0.366895556,0.464377463,0.700455368,-0.335396498,-0.461327374,-0.429008931,9.641036034,0.459785789,-1.583881021,0.573513091,0.248487964,0.378472447,0.390604079,-0.588457644,-0.485872209,-0.514853716
1358791,9.173962593,-0.729804218,3.464704514,0.550103247,0.220775083,0.468052924,0.700526357,-0.335352033,-0.461313099,-0.428942889,9.63758564,0.454278469,-1.609193206,0.462840676,0.172981769,0.526052773,0.390770942,-0.588361979,-0.485960782,-0.514752805
1358958,9.176165581,-0.722563744,3.443781376,0.753083706,0.226845264,0.484547436,0.700609624,-0.335287154,-0.461310029,-0.428861111,9.635050774,0.457682997,-1.61726141,0.252368301,0.056328725,0.498659998,0.390913755,-0.588280499,-0.486048281,-0.514654756
1359125,9.174452782,-0.713864684,3.431232691,0.794653237,0.24773246,0.56206435,0.700701416,-0.335221708,-0.46130392,-0.428768873,9.634950638,0.454789847,-1.596951962,0.058736324,-0.071651526,0.483330876,0.391033888,-0.588214338,-0.486135572,-0.514556825
1359291,9.180851936,-0.701859236,3.466677666,0.767952025,0.169460014,0.484611481,0.700780928,-0.335159451,-0.461307824,-0.428683341,9.65908432,0.449386179,-1.617793918,0.011109509,-0.099748656,0.475851983,0.391149104,-0.588150382,-0.486223876,-0.514459074
1359458,9.16039753,-0.68769753,3.466103077,0.645164669,0.353192717,0.381750852,0.70086062,-0.335090786,-0.461290449,-0.428625584,9.654111862,0.442623883,-1.608645678,-0.199164361,0.183303684,0.328066677,0.391253442,-0.588068068,-0.486291498,-0.514409781
1359625,9.169360161,-0.690047085,3.459719419,0.562000215,0.189258635,0.379420102,0.700925052,-0.335039854,-0.461284667,-0.428566039,9.634442329,0.431397855,-1.620701313,-0.097725257,-0.083932817,0.324724227,0.391346723,-0.588000298,-0.48638162,-0.514330983
1359791,9.184855461,-0.715881586,3.432132721,0.618104935,0.118490763,0.347378641,0.700985432,-0.334985018,-0.461291343,-0.428503007,9.667432785,0.438296378,-1.580587029,-0.090131089,0.121807598,0.037170429,0.391430408,-0.587899745,-0.486481637,-0.51428771
1359958,9.192240715,-0.709236443,3.482960939,0.536387503,0.284806818,0.129388943,0.701039135,-0.334913731,-0.461287051,-0.428475529,9.614214897,0.409293503,-1.599558353,0.118874937,0.046019614,0.056111019,0.391525507,-0.587796628,-0.486596376,-0.514224648
1360125,9.173083305,-0.725261748,3.40516305,0.916147172,-0.137745127,0.245606586,0.701090336,-0.334837645,-0.461343557,-0.428390443,9.592274666,0.442355394,-1.642255187,0.437535346,-0.329558581,0.219507232,0.391646594,-0.587703288,-0.486756504,-0.514087498
1360291,9.12563324,-0.737894177,3.419897556,0.897283256,0.16516991,0.624482393,0.701184034,-0.334770739,-0.461350143,-0.428282291,9.648039818,0.447742879,-1.643759966,0.511325538,-0.708267927,0.417147607,0.391752452,-0.587656975,-0.486917228,-0.513907611
1360458,9.222486496,-0.700207114,3.387586117,0.762803733,0.385311007,0.447511464,0.701274931,-0.334692419,-0.461334407,-0.428211421,9.664083481,0.445718944,-1.661939383,0.608448863,-0.667927861,0.577380657,0.391880184,-0.587614417,-0.487068892,-0.513715267
1360625,9.290481567,-0.709506512,3.468321562,0.123203501,1.001834393,-0.252195448,0.701331556,-0.334594518,-0.461251438,-0.428284556,9.674012184,0.496860355,-1.630063891,0.594669282,-0.456751257,0.266877919,0.392007381,-0.587526023,-0.48724544,-0.513551712
1360791,9.16348362,-0.68298763,3.512575865,0.182727396,0.228843063,-0.40817678,0.701329112,-0.334528357,-0.461259097,-0.428332031,9.701602936,0.463884145,-1.602348328,0.282616943,0.015642956,0.025900841,0.392112464,-0.587412238,-0.487381518,-0.513472617
1360958,9.190472603,-0.691659451,3.472818375,0.643077195,0.970945358,0.003092733,0.701424837,-0.334395558,-0.461199224,-0.428343415,9.685681343,0.438396513,-1.610194445,0.254737467,0.427956134,0.247975737,0.392265141,-0.587280393,-0.487477958,-0.513415098
1361125,9.135907173,-0.715719104,3.484437227,0.47062692,0.929273486,0.503424048,0.701540589,-0.334316194,-0.461108625,-0.428313553,9.642964363,0.45592913,-1.612172604,0.52782011,0.579608977,0.47979629,0.392465562,-0.587141693,-0.487561822,-0.51334101
1361291,9.115505219,-0.701839566,3.523320675,0.542432189,0.397835672,0.691984713,0.701636255,-0.334274918,-0.461067021,-0.428233892,9.643930435,0.474809378,-1.571098566,0.326837242,0.658137441,0.613289654,0.392667949,-0.587014258,-0.487619251,-0.513277471
1361458,9.144634247,-0.674973369,3.493364334,0.42480582,0.104211666,0.447741956,0.701691866,-0.334246844,-0.461058974,-0.428173155,9.619095802,0.507593811,-1.57869184,-0.085290283,0.667601347,0.717059493,0.392846525,-0.586913407,-0.487640083,-0.513236403
1361625,9.145249367,-0.669315815,3.467247486,-0.116653033,0.34121874,0.109910488,0.701716125,-0.334235877,-0.461009383,-0.428195268,9.616693497,0.478521883,-1.571336031,-0.521538556,0.450905144,0.718813896,0.392976731,-0.586848378,-0.48764649,-0.513204873
1361792,9.127283096,-0.717047393,3.456393242,-0.077977866,0.428122669,0.32417351,0.701761365,-0.33422938,-0.460943192,-0.428197563,9.624697685,0.431738198,-1.569069028,-0.628317893,0.213981286,0.741974235,0.393075883,-0.586814582,-0.487648994,-0.513165176
1361958,9.137905121,-0.730799377,3.47392869,0.344215453,0.474251151,0.694353819,0.701853216,-0.334201872,-0.460880488,-0.428135931,9.630693436,0.399272501,-1.593505383,-0.291037083,0.082043871,0.882376671,0.393208951,-0.586777568,-0.487676203,-0.513079703
1362125,9.144003868,-0.73328203,3.445044518,0.391163588,0.438034803,0.718570709,0.701946676,-0.33417359,-0.46082294,-0.42806679,9.653086662,0.402010113,-1.596583366,0.198261514,-0.170414105,0.869122207,0.393367231,-0.586728871,-0.487757385,-0.51293689
1362292,9.173776627,-0.714501143,3.494415998,0.115058646,0.64314121,0.594899654,0.702032685,-0.334152818,-0.460733324,-0.428038508,9.656446457,0.419905365,-1.587545633,0.455745935,-0.235688061,0.717136383,0.393525422,-0.58666575,-0.487866819,-0.512783587
1362458,9.173364639,-0.710420728,3.47810483,0.161123082,0.407850206,0.366063088,0.702090979,-0.334126502,-0.460681558,-0.428019077,9.646326065,0.454918593,-1.590414524,0.376397818,-0.220128343,0.313006401,0.393657058,-0.586568654,-0.488014042,-0.51265353
1362625,9.147855759,-0.720047891,3.502780676,0.420080274,0.136086673,0.402906954,0.702145875,-0.334093034,-0.460671961,-0.427965432,9.624156952,0.420905292,-1.602044344,0.278749377,-0.536457956,0.199260399,0.393740147,-0.586500943,-0.488171607,-0.512517154
1362792,9.144964218,-0.724454165,3.430464745,0.821930647,-0.351175666,0.755645037,0.70220983,-0.334072292,-0.460719645,-0.427825272,9.668915749,0.418732494,-1.640562057,0.527756095,-0.557089031,0.511940181,0.393872917,-0.58643645,-0.488329798,-0.512338281
1362958,9.243515968,-0.770423472,3.478738785,0.528665304,0.565893352,0.677129328,0.702315927,-0.334019512,-0.460659593,-0.427757114,9.656171799,0.500699103,-1.629703641,0.630411744,-0.613206446,0.389409065,0.394001305,-0.586361647,-0.488509685,-0.512153745
1363125,9.16061306,-0.694686472,3.460383415,0.734335244,-0.60705936,0.235720083,0.70232594,-0.333989739,-0.46075353,-0.42766276,9.655883789,0.522215724,-1.630424857,-0.08234483,-0.655441821,-0.013869276,0.394034833,-0.586301804,-0.488673836,-0.512039781
1363292,9.167991638,-0.659998953,3.465709925,0.946126699,0.472919315,0.066317685,0.702407837,-0.333859622,-0.460758895,-0.427624166,9.643364906,0.474551976,-1.623193979,-0.461745769,-0.620544493,0.315951884,0.394070864,-0.586275518,-0.488790721,-0.511930406
1363458,9.159217834,-0.688219607,3.469621897,0.275394142,-0.186857432,0.403367966,0.702433467,-0.333861113,-0.460774064,-0.427564353,9.646587372,0.453131944,-1.63091743,-0.461579233,-0.572392642,0.554943919,0.394123584,-0.586266339,-0.488880366,-0.511814833
1363625,9.166877747,-0.748900712,3.457255602,0.497212917,-0.129356921,0.532584012,0.702481627,-0.333844751,-0.4607912,-0.427479535,9.636958122,0.445189595,-1.61902988,-0.26402849,-0.515365899,0.6879251,0.394213527,-0.586244464,-0.488978148,-0.511677325
1363792,9.170329094,-0.713115692,3.438316822,0.848580718,-0.399404407,0.545851469,0.702529669,-0.333810568,-0.460857064,-0.427356392,9.637111664,0.447951883,-1.634939551,-0.102604471,-0.436312318,0.805615425,0.394326329,-0.586220324,-0.489067793,-0.511532128
1363958,9.153156281,-0.668675661,3.479732037,0.323891789,-0.041825537,0.243301421,0.702556968,-0.33378765,-0.460868895,-0.427316606,9.637446404,0.444511622,-1.634498119,-0.155084908,-0.49178946,0.589252174,0.394417107,-0.586185396,-0.489178747,-0.511396229
1364125,9.156809807,-0.70018214,3.469661236,0.006780962,-0.150602669,0.165361986,0.70255661,-0.333798081,-0.460876107,-0.427301168,9.64498806,0.440288335,-1.644325852,-0.189367473,-0.305802822,0.532673717,0.394509614,-0.586138368,-0.489276797,-0.511284888
1364292,9.164729118,-0.721456945,3.473810196,0.372594327,-0.070972793,0.303491265,0.702587903,-0.333775282,-0.460891366,-0.42725113,9.650824547,0.449100107,-1.644200683,-0.094766974,-0.093832113,0.331473112,0.394613445,-0.586052477,-0.489391148,-0.511193752
1364458,9.169270515,-0.71603179,3.466060162,0.612329185,0.122499138,0.331178606,0.70264554,-0.333717793,-0.460900307,-0.427191496,9.657543182,0.444905251,-1.642662883,0.055112123,0.134959713,0.303440034,0.39474237,-0.58594048,-0.489504457,-0.51111418
1364625,9.164453506,-0.702488542,3.48115921,0.58734405,0.142848417,0.318769217,0.702702463,-0.333660781,-0.460906386,-0.427135855,9.661921501,0.466881007,-1.641790271,0.007562149,0.313390583,0.26703158,0.39487645,-0.585815728,-0.489606798,-0.511055589
1364792,9.153699875,-0.691917419,3.476255894,0.551242888,0.328105062,0.38362059,0.702773988,-0.333600044,-0.460888177,-0.427085161,9.677062988,0.491138428,-1.624395609,-0.048433617,0.557658911,0.277558416,0.395026147,-0.585674107,-0.489693403,-0.511019289
1364958,9.168865204,-0.687603951,3.487127542,0.410757244,0.397054434,0.279748291,0.70283699,-0.333542138,-0.460859418,-0.427058101,9.654540062,0.485541672,-1.639451385,-0.295378476,0.690435112,0.341974378,0.395169675,-0.585539877,-0.489750296,-0.511007547
1365125,9.185495377,-0.693043947,3.507147074,0.47060132,0.331447512,0.369968981,0.702903867,-0.333487839,-0.460836768,-0.427014828,9.662061691,0.480837673,-1.628799558,-0.381488353,0.899959803,0.4075813,0.395329326,-0.585395396,-0.489788592,-0.511013031
1365292,9.176952362,-0.712252021,3.482059717,0.299124271,0.395133495,0.489631563,0.702974081,-0.333454758,-0.460791171,-0.426974118,9.629675865,0.452761143,-1.608496547,-0.513713896,0.850002229,0.469077379,0.395477027,-0.585267305,-0.489813656,-0.511021137
1365458,9.139458656,-0.702177584,3.470648289,0.289481103,0.464377403,0.454093933,0.703046262,-0.333415926,-0.460739642,-0.426941186,9.622606277,0.444150269,-1.596407056,-0.393244565,0.644024909,0.604927123,0.39562881,-0.585158527,-0.489846557,-0.51099664
1365625,9.152887344,-0.701136887,3.469536066,0.178206742,0.517062783,0.497622728,0.703119338,-0.333387911,-0.460673809,-0.426913857,9.626652718,0.443410367,-1.605230689,-0.207155511,0.536028922,0.54022944,0.395788789,-0.58503747,-0.489910722,-0.51094991
1365792,9.15682888,-0.715742111,3.472293377,0.363706738,0.42369172,0.545377612,0.703197956,-0.333349794,-0.46062693,-0.426864833,9.641612053,0.442848891,-1.602394938,0.043291859,0.516524911,0.531521142,0.395970017,-0.584900677,-0.489997983,-0.510882556
1365958,9.157021523,-0.728044391,3.471541882,0.53237915,0.340949833,0.592568994,0.703281999,-0.333302706,-0.46059677,-0.426795691,9.652490616,0.438954413,-1.607812762,0.354281276,0.458281636,0.583386838,0.396180123,-0.58475101,-0.490110576,-0.510783017
1366125,9.153759956,-0.726674616,3.50163269,0.614224553,0.236565307,0.484611541,0.703356266,-0.333246499,-0.460587561,-0.426726907,9.644515991,0.453520298,-1.598385811,0.390292734,0.372491896,0.544570804,0.396283954,-0.584698737,-0.490119517,-0.510753632
1366292,9.164690018,-0.71669668,3.510648966,0.579416931,0.207827851,0.567647874,0.703432322,-0.33320114,-0.460575014,-0.426650703,9.640878677,0.447394252,-1.590468168,0.458307207,0.242072016,0.476402551,0.396378994,-0.584647238,-0.490147024,-0.510712504
1366458,9.144440651,-0.713988602,3.523360491,0.682303071,0.226525098,0.555110395,0.703513801,-0.333142996,-0.460567445,-0.426569909,9.640623093,0.457234204,-1.591365337,0.594566822,0.136137903,0.602545142,0.396487266,-0.584604383,-0.490180135,-0.510645688
1366625,9.147498131,-0.706616819,3.510952711,0.707723796,0.071901254,0.567647874,0.703587115,-0.333092421,-0.460576385,-0.426478863,9.647180557,0.468672782,-1.589227557,0.523773313,0.033302914,0.565790951,0.396579176,-0.584570408,-0.490217209,-0.510577619
1366792,9.146636963,-0.686689258,3.481176615,0.735551894,0.030472709,0.456053287,0.703652203,-0.333033741,-0.460596532,-0.426395506,9.645418167,0.471540719,-1.602505326,0.409220487,-0.153471291,0.613340914,0.396651238,-0.584559858,-0.490252763,-0.510499597
1366958,9.166737556,-0.692333937,3.489196062,0.717149138,0.010968638,0.558478475,0.703721225,-0.332984656,-0.460612804,-0.426302195,9.634159088,0.486117423,-1.604583383,0.273178667,-0.148732945,0.594246686,0.396710277,-0.584555209,-0.490279913,-0.510433078
1367125,9.16550827,-0.69446373,3.50663209,0.633895099,0.025990486,0.351335794,0.703774273,-0.332928985,-0.460632622,-0.426236629,9.634149551,0.480660111,-1.605202079,-0.011564134,-0.32937932,0.489644378,0.396723866,-0.584572554,-0.490305662,-0.510377884
1367292,9.170926094,-0.675871015,3.512529373,0.633126676,-0.095368877,0.408528924,0.703822613,-0.332884401,-0.460662156,-0.42615962,9.673941612,0.504141748,-1.583680987,-0.294443578,-0.203441665,0.36882925,0.396712929,-0.584587932,-0.490313828,-0.510360956
1367458,9.152040482,-0.679250479,3.479081154,0.501720726,0.029845195,0.287688226,0.703865528,-0.332836926,-0.460676759,-0.426110297,9.65553093,0.496323943,-1.616999984,-0.63347882,0.018882962,0.257798195,0.396680236,-0.584597766,-0.49029386,-0.510394275
1367625,9.130984306,-0.683985651,3.50066328,0.344830155,0.159868062,0.418453872,0.703917444,-0.332805842,-0.460662216,-0.426064551,9.653617859,0.487430871,-1.600608468,-0.771915495,0.111562513,0.407670915,0.396652907,-0.584618986,-0.490246087,-0.510437131
1367792,9.143452644,-0.689532161,3.487421036,0.242072016,-0.068232238,0.481192231,0.703952968,-0.33280316,-0.46066168,-0.426008523,9.686845779,0.487515897,-1.615600228,-0.922351658,0.399833471,0.589188159,0.396646351,-0.584640026,-0.490155429,-0.510505199
1367958,9.174566269,-0.684221447,3.551781893,0.131501988,0.10121499,0.305565894,0.703983486,-0.332789242,-0.460645586,-0.42598632,9.64655304,0.456647784,-1.574888706,-0.889324069,0.498570353,0.639299393,0.396652788,-0.584655106,-0.490057707,-0.510576844
1368125,9.135388374,-0.71154362,3.499472618,0.010161838,-0.112836741,0.339848489,0.703996122,-0.332802653,-0.46064207,-0.425958782,9.57611084,0.41530785,-1.619870663,-0.604203522,0.302774131,0.843983233,0.396684498,-0.584682345,-0.489975095,-0.51060003
1368292,9.107802391,-0.724832833,3.455113411,0.092378601,-0.035755329,0.513886809,0.704028726,-0.332814336,-0.460627288,-0.425911844,9.633849144,0.397710174,-1.622689247,0.002951863,-0.12228784,0.961980939,0.396746218,-0.58471483,-0.489952326,-0.510536909
1368458,9.222026825,-0.741186857,3.417867184,-0.066016726,0.511146247,0.591467679,0.704094946,-0.33281365,-0.460542977,-0.425893903,9.649330139,0.413733125,-1.638948083,0.597204983,-0.34295404,0.953797817,0.396842033,-0.584728837,-0.489987135,-0.510412931
1368625,9.191579819,-0.720653892,3.508915186,-0.035230268,0.984635413,0.026144164,0.704158902,-0.332743138,-0.460440129,-0.425954461,9.682959557,0.452472657,-1.599761605,0.786994994,-0.042465854,0.375450104,0.396932274,-0.584668458,-0.490068167,-0.510334074
1368792,9.158234596,-0.671282709,3.510623217,0.042152099,0.130925715,-0.411954641,0.704142272,-0.332688093,-0.460450739,-0.42601347,9.701580048,0.454515904,-1.602488279,0.792386472,0.329962015,-0.01726296,0.397020012,-0.58455193,-0.490161657,-0.510309577
1368958,9.178759575,-0.725230515,3.527801037,0.081544437,0.9862234,0.134178534,0.704218626,-0.332612067,-0.460350007,-0.42605564,9.675178528,0.450914025,-1.597794294,0.857711613,0.706391811,0.262280434,0.39716059,-0.584423244,-0.490214705,-0.510296583
1369125,9.123030663,-0.752652526,3.545340776,0.279236078,0.458409637,0.619526386,0.704299331,-0.332580835,-0.460291922,-0.426009387,9.630382538,0.515313387,-1.557095051,0.757668436,0.788659871,0.552344203,0.397319794,-0.584314644,-0.490231097,-0.510281324
1369292,9.115207672,-0.725495338,3.546468735,0.806140482,0.101022884,0.729917109,0.704388678,-0.332525015,-0.460297167,-0.425899327,9.627689362,0.5257653,-1.560355186,0.310650021,0.664604604,0.844815671,0.397453308,-0.584261119,-0.490197122,-0.510271251
1369458,9.143925667,-0.664931417,3.536722183,0.417544663,-0.154585451,0.558350444,0.704431891,-0.332513094,-0.460312456,-0.425820708,9.608187675,0.513895273,-1.550907135,-0.339022487,0.564715207,1.034682512,0.397537947,-0.584265411,-0.490105003,-0.510288894
1369625,9.114192963,-0.675220311,3.539726734,-0.159298182,0.002695736,0.31404373,0.70444262,-0.332533479,-0.46028778,-0.425813794,9.623114586,0.468635738,-1.546644568,-0.667428553,0.330743194,1.022158146,0.397576481,-0.584304392,-0.490003437,-0.510311604
1369792,9.116947174,-0.733909249,3.519127369,-0.032374449,-0.089426734,0.443861663,0.704461396,-0.332554579,-0.460274041,-0.425781071,9.627746582,0.418149501,-1.571455359,-0.67246145,0.008202468,1.039420962,0.397592664,-0.584368408,-0.489918947,-0.510306895
1369958,9.102174759,-0.730209887,3.510353088,0.464966506,-0.112567812,0.711219847,0.704519391,-0.332543999,-0.460280269,-0.425686657,9.637841225,0.39966017,-1.573764682,-0.203953922,-0.204811931,1.038486123,0.397633374,-0.584420741,-0.489881665,-0.510251045
1370125,9.140145302,-0.702174008,3.521687984,0.271232039,-0.026752464,0.570004225,0.704565167,-0.332538307,-0.460272372,-0.425623924,9.634511948,0.398543388,-1.585339427,0.251138896,-0.521192789,0.788339615,0.39767167,-0.584452331,-0.489917696,-0.510150433
1370292,9.145338058,-0.711808324,3.512819052,0.144961461,-0.039712492,0.482664883,0.704598546,-0.332540154,-0.46026215,-0.425578117,9.632680893,0.410565019,-1.560861945,0.446205258,-0.773516357,0.475557417,0.397685349,-0.58446908,-0.490009338,-0.510032594
1370458,9.150648117,-0.721889853,3.516184568,0.03198386,-0.11042916,0.207366839,0.704604745,-0.33253926,-0.460265547,-0.425564915,9.672187805,0.45924148,-1.574696302,0.51181215,-0.89755857,0.103878699,0.397668183,-0.584464431,-0.49014461,-0.509921312
1370625,9.152941704,-0.72907424,3.526090384,0.345995545,-0.276886076,0.094107464,0.704608023,-0.332508713,-0.460310906,-0.425534338,9.608369827,0.490177959,-1.604135871,0.052012991,-1.098989725,-0.073636517,0.39758411,-0.584488153,-0.490272701,-0.509836435
1370792,9.119374275,-0.693832338,3.512372255,0.73462981,-0.605957925,0.340604037,0.704623401,-0.332475096,-0.460401982,-0.425436676,9.609236717,0.471219957,-1.620113134,-0.191634208,-1.742201328,0.24186714,0.397456169,-0.584595799,-0.490393609,-0.509696424
1370958,9.230033875,-0.724707663,3.441166162,0.381136179,-0.318852484,0.416481674,0.704645514,-0.332464546,-0.460438073,-0.425368994,9.552893639,0.524611473,-1.64955759,-0.346142799,-2.47877121,0.727560699,0.397297859,-0.584801316,-0.490504801,-0.50947696
1371125,9.138883591,-0.711511493,3.541070938,0.469704866,-0.088299781,0.133973628,0.704669416,-0.332412064,-0.460470319,-0.425335407,9.594565392,0.568303287,-1.61964798,-0.947144806,-3.023720026,0.50378257,0.397031963,-0.585065722,-0.490622878,-0.50926739
1371292,9.203769684,-0.68048799,3.440626383,0.536118567,-0.208461761,-0.40607655,0.704655409,-0.332323641,-0.460544884,-0.42534712,9.63985157,0.506784439,-1.641914845,-1.694958925,-3.33687377,0.670201123,0.396691054,-0.585407436,-0.490690112,-0.509075403
1371458,9.16858387,-0.682039976,3.51764679,0.444642842,0.21105504,0.121769175,0.704697013,-0.332253963,-0.460546076,-0.425331205,9.61496067,0.4608275,-1.688536048,-1.911603689,-3.51982522,1.130922318,0.396351933,-0.585807621,-0.490713179,-0.508857012
1371625,9.180340767,-0.714722633,3.491337061,0.345496088,0.259975284,0.585602343,0.704765856,-0.332222074,-0.46051389,-0.425277144,9.47823143,0.45081681,-1.70510745,-1.300600171,-4.619174004,1.725534081,0.396029532,-0.586296082,-0.49079439,-0.50846684
1371792,9.176840782,-0.730164826,3.48292923,0.142835632,0.310189009,0.609460592,0.704829574,-0.332209349,-0.460463017,-0.425236613,9.4724226,0.461500019,-1.733448863,-1.417829633,-5.600512028,2.917677641,0.395714194,-0.586948752,-0.490822166,-0.507932305
1371958,9.210336685,-0.694111884,3.467380047,0.392354518,1.705978632,0.783332348,0.705009341,-0.332096457,-0.460276246,-0.425228983,9.456814766,0.336891443,-1.749312878,-1.393856406,-7.225434303,5.989575863,0.395510375,-0.587938786,-0.490683019,-0.50707972
1372125,9.197413445,-0.645223975,3.487052917,-1.724746466,3.116175652,0.736345947,0.705177903,-0.332110137,-0.459816664,-0.42543596,9.636761665,0.474183023,-1.741844535,1.455961347,-8.703790665,12.42363358,0.395917684,-0.589331806,-0.490287542,-0.505524933
1372292,9.176654816,-0.710605979,3.452629805,-2.6883986,5.410522938,0.890521646,0.705462098,-0.332090348,-0.459055126,-0.425802529,9.761257172,1.006810188,-1.690165758,-0.01385649,-8.62349987,18.28945732,0.396632612,-0.591217875,-0.489274025,-0.503741145
1372458,9.099681854,-0.927697778,3.422533035,-2.16108489,6.13472271,0.330692023,0.7057845,-0.331934035,-0.458279222,-0.426225841,10.05529594,1.083709836,-1.706578135,-4.193908691,-6.502360344,23.32323074,0.397499919,-0.593538702,-0.487397045,-0.502145469
1372625,9.177054405,-0.797721446,3.562417507,-0.821527362,5.599199295,-1.399183512,0.706027985,-0.331559479,-0.457724154,-0.426710069,9.827746391,0.908061862,-1.695660591,-8.239963531,-4.074557304,27.90092659,0.398514211,-0.596227765,-0.484685004,-0.500778735
1372792,9.014356613,-0.645572364,3.729253769,-2.692944765,3.211096048,-1.116572618,0.706039667,-0.33154425,-0.457284123,-0.42717424,9.844755173,0.647910416,-1.749516368,-11.33230591,-1.931717157,30.70942497,0.399604738,-0.599123001,-0.481373489,-0.499647379
1372958,9.074186325,-0.749953806,3.620532036,-4.456225872,0.92703253,-0.339291453,0.705863118,-0.331902027,-0.456930518,-0.427566528,9.709445953,0.383453399,-1.772006512,-13.52081966,0.085988589,31.89392662,0.40072009,-0.602065325,-0.477673382,-0.498767585
1373125,9.127145767,-0.784874856,3.631735325,-4.051532269,0.85704571,0.360607564,0.705744922,-0.332268685,-0.456574678,-0.427856565,9.59335804,0.023827139,-1.801965475,-14.61477947,0.875989914,31.28685379,0.40173915,-0.604955792,-0.473890811,-0.49805814
1373292,9.125975609,-0.618790329,3.644355297,-4.006453514,0.012057178,1.165845275,0.70562309,-0.332736641,-0.456268847,-0.42802003,9.487078667,-0.369357586,-1.780068517,-13.63194561,0.791864157,28.14880562,0.402602583,-0.607565105,-0.470450282,-0.497446209
1373458,9.04710865,-0.478530318,3.617639065,-6.599957466,0.012979236,0.951198101,0.705362082,-0.333455086,-0.455811739,-0.428378314,9.460962296,-0.64550668,-1.788918853,-11.17119503,-0.093934789,22.3468399,0.403198153,-0.60968858,-0.467743307,-0.496917874
1373625,9.142225266,-0.508461595,3.532142401,-7.528521538,0.53250736,1.11940968,0.705099761,-0.334244996,-0.455235451,-0.42880702,9.513084412,-0.793383956,-1.785970926,-7.514157772,-0.665982008,14.80070114,0.403532922,-0.611122131,-0.465996981,-0.496525705
1373792,9.164470673,-0.649292707,3.506245613,-6.831842899,1.504394174,1.303052783,0.704945505,-0.334913075,-0.45459491,-0.42921862,9.629123688,-0.843598604,-1.770859599,-3.662424326,-0.662959218,6.279574394,0.403596878,-0.611752331,-0.465281785,-0.496368438
1373958,9.084563255,-0.711671829,3.566054344,-4.900478363,1.255156994,1.396295667,0.704873323,-0.335404128,-0.454096615,-0.42948103,9.725270271,-0.867044806,-1.760047078,0.182586551,0.324929148,-2.202717781,0.403460681,-0.611513376,-0.465537637,-0.496533692
1374125,9.120236397,-0.751403511,3.605893612,-2.903161287,0.487121582,1.538228273,0.704856336,-0.335747153,-0.453794986,-0.429559648,9.793167114,-0.745941103,-1.804613471,4.338542938,2.02553606,-8.531682968,0.40335536,-0.610480547,-0.466553152,-0.496936917
1374292,9.123343468,-0.770532191,3.620585918,-0.562621415,-0.170593411,1.623134494,0.704915583,-0.335896492,-0.453702867,-0.42944321,9.818218231,-0.485608667,-1.769001007,6.800657272,3.820361376,-13.16010857,0.403257221,-0.608859122,-0.468048185,-0.497599691
1374458,9.103116989,-0.867777705,3.638637066,1.026588917,-0.816097498,1.495749712,0.70500195,-0.335914344,-0.453782141,-0.42920354,9.685978889,-0.398111433,-1.776472211,8.345338821,5.611154079,-17.19765663,0.403124213,-0.606739104,-0.469902813,-0.498547941
1374625,9.060177803,-0.883374751,3.637415886,2.865222216,-1.681396723,1.029944181,0.705092371,-0.33576709,-0.454086959,-0.42884782,9.676026344,-0.324038059,-1.752925396,9.719532013,6.525161743,-20.08061218,0.402962863,-0.604269922,-0.472052246,-0.49964568
1374792,9.111404419,-0.803445399,3.60733819,4.095822811,-2.700577497,1.106078029,0.705180526,-0.335562259,-0.454568177,-0.428352892,9.608880043,-0.199504718,-1.77615273,10.8636961,6.832874775,-21.19647598,0.402837843,-0.601627707,-0.474357963,-0.500749707
1374958,9.099546432,-0.850875318,3.595957756,4.253008366,-2.544365644,0.759141207,0.705264926,-0.335308343,-0.455059677,-0.427890748,9.550388336,-0.059179392,-1.727162361,11.43620205,6.448144436,-21.21582413,0.402729839,-0.598971367,-0.476723105,-0.501773953
1375125,9.09395504,-0.89474678,3.558160782,4.934741497,-2.730070591,0.442645103,0.705350459,-0.334975034,-0.455627352,-0.42740646,9.5014534,0.132424444,-1.705901265,11.39358139,5.382333755,-20.10530472,0.402619928,-0.596464992,-0.479044735,-0.502636194
1375292,9.127699852,-0.873066425,3.533281803,5.678021908,-2.429467201,0.392700315,0.705488861,-0.334543914,-0.456211984,-0.426891983,9.522335052,0.321099699,-1.649979949,10.4806242,4.254346371,-17.81185532,0.402514458,-0.594247401,-0.481162131,-0.50332433
1375458,9.142716408,-0.833739042,3.495165825,5.679277897,-1.847098589,0.160444394,0.705651045,-0.334061354,-0.456747591,-0.426428735,9.583442688,0.463127941,-1.631258845,8.798336029,3.224520445,-14.71986198,0.402413011,-0.59241426,-0.482946604,-0.503856838
1375625,9.145628929,-0.819560766,3.492932081,5.003371239,-1.234634757,-0.198242322,0.70579803,-0.333586663,-0.45719564,-0.426076353,9.636702538,0.576345146,-1.642916679,6.253146172,2.529262304,-11.41108036,0.402281851,-0.591009021,-0.484299302,-0.504313469
1375792,9.15789032,-0.82727164,3.497912407,4.297395229,-0.753359139,-0.257817447,0.705938756,-0.333151072,-0.457553536,-0.425799996,9.677757263,0.62514317,-1.58311832,3.580701351,2.218784094,-7.915812016,0.402151853,-0.590025663,-0.48517409,-0.504727423
1375958,9.158742905,-0.795972645,3.518419981,3.607081413,-0.529286504,-0.416769892,0.706050694,-0.332762241,-0.457853287,-0.425596148,9.697738647,0.657174706,-1.57304275,0.704304516,2.091693401,-4.642917156,0.402003706,-0.589448154,-0.485565573,-0.505143523
1376125,9.15930748,-0.782152295,3.57055831,3.022586823,-0.290652931,-0.450693876,0.706147909,-0.332416654,-0.458094031,-0.425446063,9.659462929,0.628667772,-1.592656255,-1.815748572,2.140255213,-1.431891084,0.401876479,-0.589238882,-0.485495329,-0.505556107
1376292,9.120697021,-0.75414151,3.565400839,2.45011735,-0.32811147,-0.38890323,0.70621866,-0.332136184,-0.458299816,-0.425325751,9.628702164,0.568219543,-1.589890122,-4.107867718,1.787196875,1.008096814,0.401705265,-0.589359999,-0.485069752,-0.50595963
1376458,9.114215851,-0.716233671,3.569509983,1.352907538,-0.336345941,-0.25736922,0.706244171,-0.331977546,-0.458432108,-0.425264806,9.637064934,0.452019215,-1.550676942,-5.605544567,1.113416076,2.211919069,0.401444703,-0.589701474,-0.484471232,-0.506341994
1376625,9.106142998,-0.69896996,3.602574825,0.5403319,0.065305978,-0.365518808,0.706250489,-0.33186993,-0.458478034,-0.425288767,9.634209633,0.275373191,-1.581091404,-5.749193668,0.909014106,2.235867262,0.401158035,-0.590066373,-0.483872354,-0.506716609
1376792,9.111493111,-0.699549079,3.596527338,0.640503228,-0.257817447,0.066138394,0.70626688,-0.331800163,-0.458542347,-0.425246537,9.606004715,0.15443705,-1.57984817,-4.683883667,0.578789353,1.844812155,0.400910407,-0.590365231,-0.483404547,-0.507010698
1376958,9.117951393,-0.720634401,3.515658617,0.193279862,-0.431727707,0.195034325,0.706258297,-0.331795096,-0.458590567,-0.42521295,9.613649368,0.095802486,-1.607310414,-3.124467611,-0.084790833,1.303551912,0.400710553,-0.590584159,-0.483136445,-0.507169425
1377125,9.155130386,-0.740940094,3.448289871,0.164439932,-0.118548378,0.278198719,0.706274152,-0.331779003,-0.458600879,-0.425187796,9.573065758,0.122400939,-1.632545948,-1.307682037,-0.888286948,0.513720334,0.40055266,-0.590701342,-0.483116329,-0.507176876
1377292,9.207010269,-0.742302597,3.538152933,0.243173361,0.614480615,-0.146709532,0.706315994,-0.33168155,-0.458561927,-0.425236285,9.602194786,0.221340016,-1.630633473,0.343485475,-1.541743517,-0.308773845,0.400430322,-0.590713322,-0.483326286,-0.507059336
1377458,9.126591682,-0.630524695,3.552282572,0.372158915,-0.4311257,-0.42990908,0.706276655,-0.33161664,-0.458652347,-0.425254852,9.683898926,0.288475066,-1.669291258,1.266503215,-1.824725628,-0.730960846,0.400336117,-0.590662777,-0.483657122,-0.506876945
1377625,9.19096756,-0.722898126,3.514900446,0.256133378,0.410872519,-0.082613766,0.70630908,-0.331533998,-0.458632678,-0.425286651,9.755459785,0.334790409,-1.686050653,1.631676316,-1.756096244,-0.384920478,0.400303155,-0.590610206,-0.48398158,-0.506654561
1377792,9.185366631,-0.783285975,3.535367012,0.296153218,0.283436537,0.3906129,0.706363976,-0.331486732,-0.458606184,-0.425261021,9.748584747,0.376441598,-1.678344965,1.850268006,-1.383213997,0.27288413,0.400362879,-0.590563536,-0.484244406,-0.506410539
1377958,9.167116165,-0.774263442,3.576241016,1.118782043,-0.119636931,0.688386142,0.706449986,-0.331399977,-0.458657593,-0.425130218,9.744048119,0.430655479,-1.667478561,1.585048199,-1.055051088,0.817474067,0.400462151,-0.590546131,-0.484422535,-0.506182134
1378125,9.197628975,-0.698620498,3.557954788,1.552583933,-0.798514187,0.634689033,0.706508458,-0.331307173,-0.458807975,-0.424943238,9.685863495,0.412337601,-1.656792164,0.989553094,-0.767305315,1.215546846,0.400558591,-0.590569615,-0.484506667,-0.505997777
1378292,9.20334816,-0.659044981,3.553707361,1.20947659,-0.988765538,0.239920557,0.706513047,-0.331234664,-0.458975852,-0.424810618,9.627319336,0.353758305,-1.665126324,0.454555064,-0.728860676,1.443935275,0.400627643,-0.590636969,-0.484530419,-0.505841672
1378459,9.156424522,-0.684985697,3.544587612,1.103222251,-0.890374243,0.240970701,0.706518888,-0.331166595,-0.459127516,-0.424690127,9.540484428,0.333132178,-1.644870877,0.39281559,-0.818338633,1.515599608,0.400689572,-0.590719283,-0.484549344,-0.505678415
1378625,9.142130852,-0.652437031,3.505118847,0.853588104,-1.14021337,0.451596737,0.706508756,-0.331153333,-0.459279537,-0.424552858,9.537488937,0.31967169,-1.65087378,0.270668566,-0.90227133,1.316883326,0.400719821,-0.590800524,-0.484581709,-0.50552851
1378792,9.095056534,-0.672067344,3.48510766,0.390868992,-0.789332151,0.382237494,0.706495225,-0.331160933,-0.459370762,-0.424470872,9.608119011,0.317358851,-1.630885005,0.16523394,-0.788679063,1.076879501,0.400730729,-0.590862513,-0.48462075,-0.505409956
1378959,9.047142982,-0.640816987,3.535120249,0.203409657,-0.378120273,0.508738637,0.706507564,-0.331170559,-0.459402502,-0.424408436,9.630948067,0.323897094,-1.664062858,-0.094959088,-0.408727467,0.701538265,0.400718063,-0.590884984,-0.484651148,-0.505364537
1379125,9.089932442,-0.643752933,3.541950464,-0.111235946,-0.506619215,0.566187978,0.706499696,-0.331223637,-0.45942542,-0.424355358,9.659182549,0.346098185,-1.667506814,-0.3842673,0.14245142,0.458781034,0.400700986,-0.590866387,-0.484649479,-0.505401373
1379292,9.097624779,-0.678714097,3.571983814,0.228996769,-0.432406425,0.621869922,0.706516564,-0.331240207,-0.459459245,-0.424277782,9.657734871,0.311796993,-1.653617263,-0.66562283,0.572053194,0.303324789,0.400678009,-0.590821266,-0.484616011,-0.50550437
1379459,9.078310966,-0.680761397,3.553502321,0.392930835,-0.775962412,0.875640631,0.706534088,-0.331277519,-0.459526151,-0.42414695,9.699204445,0.257883698,-1.664616108,-0.472823203,0.681509078,0.664886415,0.400705457,-0.590782166,-0.484559596,-0.505582333
1379625,9.185149193,-0.746528983,3.511837482,-0.116025522,-0.767996728,1.111687183,0.706542194,-0.331381917,-0.459549397,-0.424026579,9.663122177,0.225184187,-1.661807299,0.059363831,0.95195359,1.302847505,0.400844514,-0.590737104,-0.484471947,-0.505608797
1379792,9.171902657,-0.766371965,3.615183353,-0.063481078,0.160988644,1.210008025,0.706620872,-0.331430227,-0.459475994,-0.423937201,9.663478851,0.304269761,-1.661154389,0.394108981,0.90973115,1.20927155,0.401002467,-0.590669096,-0.484419435,-0.505613387
1379959,9.181541443,-0.693131745,3.545272827,-0.37403509,-0.59254986,0.616183937,0.706597984,-0.33151713,-0.459489018,-0.423893303,9.664097786,0.295094609,-1.635681033,0.099575765,0.816628873,0.537834585,0.401078701,-0.590577662,-0.484408677,-0.505670011
1380125,9.153681755,-0.679429293,3.597975731,-0.192466632,0.359390974,0.476645917,0.706638813,-0.331516892,-0.45942241,-0.423897684,9.680673599,0.282376796,-1.599673152,-0.072983384,1.011900067,0.209710389,0.401129425,-0.590458512,-0.484402269,-0.505774975
1380292,9.176836014,-0.733687162,3.542091608,-0.398687273,-0.109980926,0.88212055,0.70666343,-0.331593305,-0.459371686,-0.423851997,9.653242111,0.281911194,-1.605099082,0.012249274,1.005868316,0.103993967,0.401179194,-0.590327144,-0.484411657,-0.505879939
1380459,9.115287781,-0.744933248,3.588103533,0.037272882,-0.120072342,1.092221618,0.706720769,-0.331640035,-0.459338367,-0.423755914,9.650155067,0.289041311,-1.579800725,0.028001085,0.96689868,0.184059262,0.401233315,-0.590203106,-0.484417588,-0.505976021
1380625,9.128181458,-0.74292469,3.556442499,0.642974794,-0.422776073,1.213715434,0.706795573,-0.331650198,-0.459367931,-0.423591226,9.607147217,0.31118229,-1.581376672,-0.137847558,0.752417922,0.428045869,0.401275963,-0.590121388,-0.484402984,-0.50605166
1380792,9.107082367,-0.705828249,3.554769516,-0.044783805,-0.338791966,1.114017963,0.706835926,-0.331719846,-0.459350437,-0.423488081,9.602356911,0.316774338,-1.58073318,-0.339752436,0.426521868,0.806358159,0.401305676,-0.590101898,-0.48435992,-0.506092131
1380959,9.104537964,-0.729365408,3.555753946,-0.277155012,-0.326216131,0.957421899,0.706857622,-0.331800491,-0.45932585,-0.423415512,9.604154587,0.318908274,-1.571990132,-0.633670986,0.11545565,1.086548448,0.401308775,-0.590141594,-0.484289646,-0.506110549
1381125,9.108487129,-0.752503872,3.528206587,-0.55911243,-0.284582704,1.095922589,0.706876695,-0.331916809,-0.459272534,-0.423350155,9.584758759,0.279703766,-1.589235187,-0.777422309,-0.191570193,1.576224923,0.401313931,-0.590246201,-0.48418504,-0.506084442
1381292,9.125198364,-0.752155781,3.544712305,-0.921660185,-0.144788593,1.094437122,0.706887305,-0.332061917,-0.459182441,-0.4233163,9.563064575,0.261161715,-1.549010277,-0.72279042,-0.246342972,1.956714272,0.401347727,-0.590378284,-0.484055012,-0.506027937
1381459,9.087887764,-0.776303113,3.543417454,-1.343693495,-0.139678851,1.059975266,0.706875682,-0.332247913,-0.459067285,-0.423314869,9.603141785,0.243093908,-1.553957105,-0.635041356,-0.034359436,2.027418137,0.401409358,-0.590494275,-0.483912885,-0.505979717
1381625,9.000977516,-0.786459863,3.547354221,-1.574937463,-0.396061957,1.063893795,0.706836045,-0.332473785,-0.458963722,-0.423316151,9.678004265,0.233266741,-1.541546106,-0.829480171,0.341052324,2.021655321,0.401480496,-0.590593338,-0.483734816,-0.505977988
1381792,8.979675293,-0.797930121,3.594749451,-1.666067481,-0.533768594,1.078467369,0.706784427,-0.332717806,-0.458867759,-0.423314542,9.715909004,0.189845428,-1.569320202,-0.830376565,0.676924527,1.910111904,0.401567131,-0.590659678,-0.483546197,-0.506012201
1381959,9.03993988,-0.81160146,3.586583853,-1.701426148,-1.024047017,1.122111678,0.706700683,-0.3329992,-0.458816379,-0.423288643,9.709771156,0.142041445,-1.573578596,-0.570702136,0.65575552,1.767423391,0.401664674,-0.590701997,-0.483389974,-0.506034493
1382125,9.104576111,-0.869775712,3.552315474,-1.469554305,-1.220880628,0.94977653,0.706605673,-0.333256394,-0.458807856,-0.423254102,9.680279732,0.091570809,-1.589570642,0.141542166,0.139301077,1.59827733,0.401775897,-0.590728343,-0.483331025,-0.50597167
1382292,9.181301117,-0.923427582,3.499450922,-0.30184564,-1.310358524,0.980486155,0.706561208,-0.333403975,-0.458876491,-0.423137665,9.652209282,0.047210626,-1.645078659,1.268244743,-0.755203187,1.180815816,0.401890486,-0.590726256,-0.48344183,-0.505777299
1382459,9.236953735,-0.92544204,3.488189459,0.904275537,-1.178798795,0.942489684,0.7065835,-0.333416075,-0.459008753,-0.422947496,9.689538956,0.085430622,-1.622489333,2.271251202,-1.458361506,0.33230561,0.401980549,-0.590657711,-0.483740389,-0.505500138
1382625,9.227651596,-0.888137639,3.566362381,2.124567032,-1.175136328,0.571784258,0.706636012,-0.33328557,-0.459228456,-0.422724038,9.740925789,0.146279424,-1.624816298,2.774265051,-1.460487366,-0.687969983,0.40203917,-0.590488553,-0.484163076,-0.50524652
1382792,9.240300179,-0.828081012,3.550656557,2.830837011,-1.105188012,-0.156544834,0.706688344,-0.333024085,-0.459523559,-0.422522217,9.725426674,0.248205602,-1.631864429,2.527288198,-1.201466084,-2.027245045,0.401994765,-0.590222239,-0.484664828,-0.505111873
1382959,9.205472946,-0.743124068,3.556441784,3.238898993,-1.192463398,-0.941125929,0.706707299,-0.332672298,-0.459891319,-0.422367245,9.659732819,0.357444614,-1.628935814,1.521836281,-0.898275852,-3.290463448,0.401797205,-0.589898407,-0.485189021,-0.50514406
1383125,9.175515175,-0.67621547,3.551230192,3.774562836,-1.575552464,-1.368717194,0.706699848,-0.332260191,-0.460351825,-0.422202229,9.538174629,0.442610592,-1.608519197,0.160380319,-1.123180866,-3.962002754,0.401415646,-0.589623749,-0.485682905,-0.505293489
1383292,9.121822357,-0.627659023,3.479274035,3.964609385,-1.904073834,-1.446554184,0.706676245,-0.331840783,-0.460863084,-0.422013909,9.519153595,0.485099763,-1.612508893,-1.224799395,-1.814160109,-3.846374035,0.400870413,-0.589491308,-0.486101925,-0.505478024
1383459,9.109177589,-0.633292019,3.456713676,3.690578461,-1.775344253,-1.250527143,0.706656694,-0.3314569,-0.461333066,-0.421834797,9.561466217,0.522763848,-1.636342049,-2.565880775,-2.180166006,-3.147212029,0.400235504,-0.589511156,-0.486385703,-0.505684793
1383625,9.100390434,-0.613690019,3.482530594,2.971028328,-1.538080931,-1.181462526,0.706625164,-0.331133008,-0.461734056,-0.421703339,9.629397392,0.545538604,-1.642162204,-3.836628675,-2.18166399,-2.098243475,0.399567157,-0.589678466,-0.486486703,-0.505921185
1383792,9.099955559,-0.615498126,3.478185892,1.884960413,-1.285539746,-0.867450953,0.706575036,-0.33092767,-0.462026089,-0.421628326,9.691005707,0.513256133,-1.648940563,-4.921954632,-1.467428446,-0.905012012,0.398942381,-0.589939594,-0.486364394,-0.506227136
1383959,9.092278481,-0.626448929,3.520708561,0.52675724,-1.028093815,-0.627664804,0.706489384,-0.330863804,-0.462195754,-0.421636164,9.684624672,0.445478529,-1.657603383,-5.225362778,-0.88056463,0.198965862,0.398421139,-0.59024471,-0.486100644,-0.506535351
1384125,9.118475914,-0.659546971,3.518642664,-0.935952127,-1.14598906,-0.37172994,0.706340909,-0.330974013,-0.462275535,-0.421710908,9.695846558,0.351002902,-1.687064648,-4.883458614,-0.597672403,1.271702766,0.398025423,-0.590586245,-0.48575151,-0.506783485
1384292,9.147492409,-0.709648132,3.531110048,-1.65003407,-1.125524402,0.113381006,0.70619303,-0.331184238,-0.462289065,-0.421778738,9.679962158,0.26304248,-1.703179121,-3.739083052,-0.473566055,2.065517187,0.397788912,-0.590913713,-0.485404313,-0.506919861
1384459,9.184715271,-0.763906598,3.492237329,-2.084719896,-1.176967621,0.446794361,0.70602417,-0.331483155,-0.462251544,-0.421867669,9.684625626,0.177012518,-1.717872024,-2.147330284,-0.670540452,2.547996044,0.397710204,-0.591198504,-0.485143453,-0.506899178
1384625,9.225268364,-0.804512262,3.48232007,-2.191883802,-1.14920342,0.66401571,0.705871761,-0.331799001,-0.462199062,-0.421931833,9.681302071,0.125887692,-1.705639362,-0.111735404,-0.754345179,2.588092804,0.397810459,-0.591368914,-0.485041261,-0.50671941
1384792,9.239696503,-0.846185446,3.481853008,-1.765291452,-1.139534831,0.863103211,0.705764353,-0.332071692,-0.462171048,-0.421927899,9.647396088,0.107376516,-1.714937687,1.901493073,-0.695961058,2.318493605,0.398072839,-0.591396272,-0.485111445,-0.506414294
1384959,9.204955101,-0.852533817,3.477970362,-0.965509176,-1.329913735,0.991576433,0.705664098,-0.332312316,-0.462184221,-0.421891749,9.641951561,0.141217738,-1.709903121,3.675133944,-0.742921948,1.681236625,0.398424119,-0.591293454,-0.485352874,-0.506026626
1385125,9.177643776,-0.819868803,3.439102888,-0.255320221,-1.307374597,0.956960976,0.705625296,-0.332446575,-0.462261796,-0.421765864,9.593258858,0.201972172,-1.684787393,4.362130642,-0.66334331,0.66034025,0.398769289,-0.59106946,-0.485732138,-0.505652368
1385292,9.153960228,-0.781399131,3.46871686,0.803259015,-1.3048774,0.833968699,0.705637634,-0.332456261,-0.462415665,-0.421568841,9.584183693,0.269199461,-1.682448506,4.539255619,-0.627203763,0.067508668,0.399078429,-0.590800703,-0.486160934,-0.505310416
1385459,9.137824059,-0.760021269,3.430198431,1.520273924,-1.621386409,0.737152636,0.705662191,-0.332399875,-0.462654412,-0.421309888,9.563480377,0.34501487,-1.695516586,4.076523304,-0.693451047,-0.234663531,0.399330407,-0.59053278,-0.486596793,-0.505004942
1385625,9.086583138,-0.72301054,3.400664806,1.736253023,-1.054987192,0.800928295,0.705757916,-0.332270503,-0.462859958,-0.421025842,9.627440453,0.39759618,-1.691426396,2.908559322,-0.753538549,-0.225865602,0.399483234,-0.59033227,-0.486956,-0.504772186
1385792,9.205747604,-0.674686015,3.434838295,1.196324348,-0.702108145,0.217061207,0.705784202,-0.332169861,-0.463000119,-0.420907021,9.661419868,0.430417389,-1.694240928,1.538164377,-0.695679426,-0.055400271,0.399531096,-0.590222001,-0.487193257,-0.504634321
1385959,9.189845085,-0.671941638,3.520797014,0.750061393,-0.374137461,-0.486077726,0.705710769,-0.332110226,-0.463068724,-0.421001881,9.651003838,0.461770624,-1.666655421,0.001178184,-0.41288951,-0.325025141,0.399437904,-0.590169132,-0.487314939,-0.504652441
1386125,9.159671783,-0.639059365,3.495287418,0.608692229,-1.077667117,-0.79710567,0.705630004,-0.332013965,-0.463267982,-0.420994103,9.666457176,0.395809084,-1.667257905,-1.644565701,-0.430139661,-0.538583875,0.399193197,-0.590190113,-0.487344384,-0.504792929
1386292,9.203755379,-0.682794511,3.481820345,0.479860276,-0.215159476,-0.386943847,0.705602646,-0.331930757,-0.463332713,-0.421034038,9.652237892,0.347072124,-1.690667272,-2.286087275,-0.48249203,-0.498410314,0.398934573,-0.590213895,-0.487375736,-0.504939497
1386459,9.138519287,-0.706125438,3.45584321,0.041396525,-0.09319181,-0.017583119,0.705593467,-0.331900328,-0.463347077,-0.421057582,9.625533104,0.299690813,-1.677654266,-2.658303738,-0.686842978,-0.616894662,0.398584157,-0.590300679,-0.487359583,-0.505130231
1386625,9.150195122,-0.713832438,3.456425905,0.180575922,-0.435646385,-0.117331766,0.705553234,-0.331879199,-0.463403255,-0.421079963,9.632916451,0.306924492,-1.666159391,-2.533774853,-0.782519162,-0.547625124,0.398236513,-0.590398014,-0.487344861,-0.505304694
1386792,9.196276665,-0.686581671,3.468330383,0.545582473,-0.805519402,-0.302601248,0.70549655,-0.331828058,-0.46353054,-0.421074986,9.599939346,0.300707519,-1.676160336,-2.339963198,-0.88514936,-0.488459766,0.397915453,-0.590483546,-0.487359971,-0.505443275
1386959,9.16936779,-0.704065859,3.478133678,0.022686446,-0.594688475,-0.725185156,0.70539546,-0.331797272,-0.463618845,-0.421171606,9.619547844,0.304112613,-1.678272247,-2.005064487,-1.024226308,-0.698330283,0.397589505,-0.590552986,-0.48741585,-0.50556469
1387125,9.138900757,-0.746140957,3.469853163,0.065229133,-0.555757105,-0.737645686,0.705314577,-0.331740499,-0.463719189,-0.421241075,9.648375511,0.307952911,-1.678779244,-1.56056869,-0.864479721,-0.633081734,0.397335947,-0.590572119,-0.487510502,-0.50565052
1387292,9.141444206,-0.736083567,3.451719522,0.343011677,-0.467380553,-0.437669843,0.705270708,-0.331671268,-0.463812113,-0.421266973,9.657969475,0.314877599,-1.681732893,-1.002545118,-0.628369272,-0.498371899,0.397132844,-0.590574563,-0.487592638,-0.505728006
1387459,9.15687561,-0.750899553,3.452521563,0.429787457,-0.552465916,-0.190007806,0.705240607,-0.331614912,-0.463907093,-0.421257198,9.652261734,0.325166643,-1.728305936,-0.476088852,-0.486410767,-0.286670148,0.397007585,-0.590544343,-0.487695038,-0.505762875
1387625,9.167775154,-0.734095216,3.44912672,0.451750427,-0.410763681,-0.182810649,0.705236197,-0.331532061,-0.463999927,-0.421227455,9.633437157,0.362012297,-1.710385561,-0.040340003,-0.43558234,-0.041530993,0.396918505,-0.590524912,-0.487779111,-0.505774438
1387792,9.170754433,-0.723663211,3.447779655,0.476684391,-0.516774654,-0.254833549,0.705212593,-0.331458151,-0.464101672,-0.421212941,9.59438324,0.397656411,-1.718592644,-0.02535657,-0.484720349,0.034020066,0.396840543,-0.590505719,-0.487869978,-0.505770266
1387959,9.149998665,-0.719624221,3.446178675,0.597025633,-0.718167245,0.015886277,0.705197692,-0.331402689,-0.464218318,-0.421152979,9.612298965,0.367200911,-1.740582228,-0.007837486,-0.914680779,0.430286974,0.396756291,-0.590551138,-0.487946242,-0.505709827
1388125,9.166388512,-0.716970861,3.361054659,0.582413554,-1.010177612,0.616593719,0.705254078,-0.331346393,-0.464378238,-0.420926541,9.63243866,0.358561009,-1.767259598,0.284691572,-0.840672791,1.061166167,0.396770924,-0.590597451,-0.488011599,-0.505581081
1388292,9.25247097,-0.748428643,3.437582731,0.279812336,0.097296238,0.46606788,0.70533365,-0.331273913,-0.464391947,-0.420835108,9.657268524,0.404719114,-1.761438847,0.389639586,-0.634836376,1.141910195,0.396820724,-0.590622723,-0.488073081,-0.50545311
1388459,9.161420822,-0.667826772,3.409036636,0.24862887,-0.864646316,0.264534354,0.705294788,-0.331293762,-0.464481205,-0.420786053,9.641672134,0.371763051,-1.776332378,-0.083612658,-0.418934107,1.14637959,0.396821797,-0.590682268,-0.488060266,-0.505395055
1388625,9.192601204,-0.677870095,3.40430975,0.404085159,0.231814146,0.328847826,0.705343008,-0.331232905,-0.464466035,-0.420769989,9.670098305,0.320705682,-1.812279463,0.041716684,-0.190289557,1.450620174,0.396869302,-0.590741992,-0.488014638,-0.505331993
1388792,9.216981888,-0.730831861,3.420410872,-0.386341959,-0.410597235,0.760946929,0.705324888,-0.331333816,-0.464439303,-0.420750439,9.68108654,0.306590408,-1.774113178,0.457333952,0.304784745,1.473825216,0.397006929,-0.590726137,-0.487989932,-0.505266368
1388959,9.190820694,-0.763706207,3.435472727,0.07943137,-0.007133137,0.781116843,0.70536828,-0.331351995,-0.464407176,-0.420698971,9.681980133,0.328879625,-1.766126633,0.596346915,0.772152483,1.317613363,0.397173196,-0.590661705,-0.487956226,-0.50524348
1389125,9.207337379,-0.707491279,3.430385113,0.458601803,-0.038290989,0.862078667,0.705433488,-0.331338197,-0.464397877,-0.420610607,9.651461601,0.347787023,-1.731996179,0.594886899,1.347849011,1.099405885,0.397376627,-0.590527534,-0.487922758,-0.505272746
1389292,9.1630373,-0.662396073,3.431928635,0.328348368,0.283731073,0.595437586,0.705421567,-0.331384361,-0.464300662,-0.420701623,9.629220963,0.337039202,-1.738819242,0.326145679,1.680212259,0.636597157,0.397533119,-0.590364754,-0.487874508,-0.505386651
1389459,9.160637856,-0.706218719,3.397317648,0.148957044,0.177412748,0.417736709,0.705454588,-0.331363618,-0.464268804,-0.420697659,9.639287949,0.32836929,-1.758294582,0.153234378,2.021399021,0.487480164,0.397691339,-0.590172648,-0.487810999,-0.505547702
1389625,9.176208496,-0.743677974,3.43908596,0.722732723,0.643474281,0.437266409,0.705552399,-0.331251711,-0.46422717,-0.420667619,9.621463776,0.349023819,-1.755870938,0.074071929,2.329347134,0.327919424,0.397808641,-0.589993656,-0.487686664,-0.505783975
1389792,9.178691864,-0.698452294,3.436986923,0.943347752,0.585064471,0.529574573,0.705681384,-0.331106395,-0.464215308,-0.420578986,9.649757385,0.370126009,-1.739773989,-0.138218939,2.66961813,0.212783903,0.397979707,-0.589739561,-0.487602532,-0.506026864
1389959,9.175467491,-0.683222413,3.429006577,0.593465447,0.833904624,0.255096078,0.705771506,-0.330987275,-0.464152545,-0.42059055,9.634342194,0.392095447,-1.737368226,-0.584648371,2.988739729,-0.033667892,0.398094684,-0.589491367,-0.487463117,-0.506359935
1390125,9.156232834,-0.658652246,3.442895174,0.58268255,1.086650848,0.123434007,0.705916286,-0.330793679,-0.464106143,-0.420551181,9.6838274,0.397899538,-1.704379201,-1.184356689,3.230087519,0.000736365,0.398148626,-0.589289904,-0.487229675,-0.506776333
1390292,9.177871704,-0.670420647,3.448101044,0.125470221,1.187846661,0.140530497,0.706025958,-0.330664754,-0.464004397,-0.420580804,9.68859005,0.396967262,-1.696284771,-1.605045557,3.593007326,-0.089734092,0.398225904,-0.589040279,-0.486999214,-0.507227242
1390459,9.186342239,-0.685432494,3.483289003,0.359058022,1.281563401,0.267992079,0.706159115,-0.330516607,-0.46389991,-0.420588881,9.67843914,0.368422925,-1.651251674,-1.864912152,3.955990076,0.024171986,0.3982777,-0.588822126,-0.486676365,-0.507749498
1390625,9.183472633,-0.703279614,3.473160982,0.210004926,1.3773036,0.448138952,0.706306577,-0.330385387,-0.463771015,-0.420586616,9.664563179,0.382974923,-1.653202534,-2.034122467,4.341000557,0.274472117,0.398381799,-0.588582098,-0.486321718,-0.508285582
1390792,9.157805443,-0.701191664,3.478070736,0.291978329,1.534386277,0.504346013,0.706399381,-0.330319971,-0.46357134,-0.420702189,9.686777115,0.360792667,-1.670835257,-2.138660431,4.590801716,0.349658191,0.398488164,-0.588345826,-0.485925019,-0.508855045
1390959,9.169586182,-0.706066847,3.480478764,0.085642464,1.731642485,0.573641121,0.706541896,-0.330221683,-0.463368475,-0.420763612,9.698225975,0.355319411,-1.630690336,-2.005218267,5.081079483,0.572155714,0.398639172,-0.588097394,-0.485470593,-0.509457111
1391125,9.17575264,-0.729419768,3.496133566,0.060273077,1.935583472,0.554341972,0.706665754,-0.33014521,-0.46312055,-0.420888722,9.724935532,0.346384704,-1.633122206,-1.830129981,5.614553928,0.748076558,0.398904502,-0.587764919,-0.485038847,-0.510044038
1391292,9.137685776,-0.71865356,3.508277655,0.20977442,2.141087294,0.873796403,0.706827462,-0.330065131,-0.46284306,-0.420985013,9.737970352,0.346894413,-1.640524507,-1.669038892,6.508130074,0.743824899,0.399204612,-0.587395191,-0.484520137,-0.510727704
1391459,9.152338982,-0.723227918,3.485817432,0.207917497,2.129971504,0.976618648,0.707003891,-0.329982519,-0.46256879,-0.421054989,9.779541016,0.347262383,-1.635910034,-1.672163606,7.491490841,0.917081952,0.39957273,-0.586977065,-0.483913749,-0.511495292
1391625,9.171924591,-0.739636123,3.499195337,0.46130389,2.580268383,1.095884085,0.7072649,-0.329815865,-0.46228528,-0.421058595,9.829566002,0.344584256,-1.646174312,-1.629838824,8.951171875,1.014525533,0.400079787,-0.586428761,-0.483246505,-0.512357414
1391792,9.157688141,-0.740294456,3.520541906,0.620192289,3.181628466,1.344647408,0.70759809,-0.329602778,-0.461944699,-0.421039492,9.851173401,0.336809158,-1.619332671,-1.699659467,11.04651165,0.923421443,0.400666207,-0.585771978,-0.482398123,-0.513449132
1391959,9.163801193,-0.748611689,3.531429529,0.830267549,3.79025054,1.487220407,0.708009601,-0.329319715,-0.461561888,-0.420988977,9.902061462,0.306821018,-1.650560141,-1.743047714,13.43264675,0.541881859,0.401402593,-0.584895551,-0.481457144,-0.514754832
1392125,9.139455795,-0.726663113,3.545129538,0.475647122,4.351156235,1.506814599,0.7084499,-0.329032212,-0.461103916,-0.420974672,9.856946945,0.234104589,-1.630454302,-1.089590788,16.39093018,-0.093537651,0.402432948,-0.583636582,-0.480535954,-0.516237676
1392292,9.121191978,-0.716555774,3.55109334,0.428827047,4.369111061,1.624786735,0.708859742,-0.328796238,-0.460606873,-0.421013325,9.812360764,0.247181937,-1.576552153,-0.33670494,18.38506508,-0.666801751,0.40352723,-0.582227886,-0.479495525,-0.517938912
1392459,9.143256187,-0.727680981,3.570550203,-0.476806015,4.192536354,1.444972515,0.709236979,-0.328615308,-0.460107327,-0.421065897,9.74050808,0.247836962,-1.519102931,0.449061692,20.2362709,-1.526813626,0.404759139,-0.580560029,-0.478486508,-0.519779682
1392625,9.12998867,-0.740585387,3.57833147,-0.305495441,3.940123081,1.108985066,0.709459305,-0.328546166,-0.45956257,-0.421339959,9.753125191,0.289212525,-1.450479269,1.244247675,20.93173409,-2.205513,0.406003028,-0.578783989,-0.477498502,-0.521695256
1392792,9.190974236,-0.760893404,3.480430603,0.225270078,4.022737026,1.192533612,0.709813714,-0.328317553,-0.459112585,-0.421411812,9.818212509,0.482643723,-1.417375565,1.4578197,22.17700577,-2.382433653,0.407389611,-0.576831877,-0.476525635,-0.52366221
1392959,9.164558411,-0.769756556,3.469018698,1.288376451,5.333236694,1.670671701,0.710294962,-0.327974409,-0.458538651,-0.421492785,9.781125069,0.516283095,-1.361867309,-0.032028742,23.15318871,-2.968799353,0.409291238,-0.574282467,-0.476103514,-0.52536273
1393125,9.256165504,-0.776360869,3.524103165,1.000778198,6.74541378,1.214285731,0.710808039,-0.32756561,-0.457807899,-0.421740174,9.834213257,0.423157483,-1.315137148,-0.593549848,24.24337006,-3.047673702,0.41128546,-0.571608424,-0.475647092,-0.527132094
1393292,9.200292587,-0.745675206,3.61888957,1.233629346,7.534904957,0.811749816,0.711416304,-0.326995224,-0.457073331,-0.421954006,9.884186745,0.510905087,-1.238997698,-0.934763253,26.16377258,-2.409981489,0.413410336,-0.568865478,-0.474962264,-0.529050946
1393459,9.133275032,-0.68715632,3.652787685,1.269435883,6.700648308,0.950737178,0.711933196,-0.32652986,-0.456385583,-0.422186762,9.747042656,0.500976384,-1.135234594,-2.139152765,27.86463547,-1.95316565,0.415560067,-0.566112697,-0.474005491,-0.531173527
1393625,9.084691048,-0.772280753,3.662385464,0.873732567,7.53740263,1.276402712,0.712513447,-0.32606712,-0.455576986,-0.422439069,9.719136238,0.533314049,-1.043823481,-2.838714838,28.50977707,-1.554515958,0.417693943,-0.563400507,-0.472878158,-0.533383548
1393792,9.029998779,-0.736791372,3.696501255,-0.255269021,6.192709923,1.40519619,0.712933362,-0.325838268,-0.454812795,-0.422730297,9.69325161,0.547496736,-0.940909684,-3.757470608,28.6622982,-1.198857069,0.419757515,-0.560776472,-0.47159785,-0.535657585
1393959,9.077091217,-0.707436264,3.647995234,0.224565759,6.462897778,1.540981889,0.713442922,-0.325507462,-0.454074681,-0.422918767,9.696258545,0.520972967,-0.855264068,-4.570407867,28.75746727,-0.866813123,0.42176038,-0.558231056,-0.470185429,-0.537979722
1394125,9.137631416,-0.727511406,3.678970337,1.260791659,6.981388092,1.786620378,0.714048684,-0.325054556,-0.453333765,-0.423039854,9.699866295,0.511229396,-0.737803459,-5.261786461,28.86670876,-0.373600751,0.423705399,-0.555784702,-0.468615264,-0.540348947
1394292,9.090521812,-0.730707824,3.663619995,1.710551143,8.192705154,1.770484686,0.714805543,-0.324423015,-0.452535063,-0.423101544,9.769411087,0.483824283,-0.657589793,-5.698215485,29.26264191,0.012799985,0.425656497,-0.553363562,-0.466931611,-0.542752445
1394459,9.063418388,-0.726167381,3.672596216,1.394067764,9.159046173,1.949607253,0.715590894,-0.323807746,-0.451584905,-0.423260421,9.792858124,0.487421423,-0.564631045,-5.979751587,29.88128471,0.222735152,0.427604467,-0.550947666,-0.465123743,-0.545225501
1394625,9.063158989,-0.74454391,3.692893982,1.134674907,9.646098137,2.164843321,0.716385543,-0.323225886,-0.450541139,-0.423473537,9.861330032,0.472991973,-0.466787219,-6.057525635,30.51147652,0.40284422,0.429571956,-0.548513353,-0.463217974,-0.547750115
1394792,9.063307762,-0.772420764,3.781162024,0.945922077,9.979280472,2.166675091,0.717271388,-0.322559208,-0.449510336,-0.423577905,9.829825401,0.432547301,-0.386741817,-5.685590744,30.85744858,0.737731576,0.431581259,-0.54606992,-0.461249232,-0.550267756
1394959,9.057966232,-0.769060194,3.830356598,1.465386271,10.71035767,2.346322298,0.718174219,-0.321872473,-0.448377013,-0.423771173,9.887631416,0.401933134,-0.306947231,-5.136569023,31.7817955,1.177541852,0.433691323,-0.5435673,-0.45918569,-0.552806437
1395126,9.042139053,-0.777341545,3.902653217,1.634007573,10.83596134,2.416936636,0.719048977,-0.321212798,-0.447201759,-0.424030185,9.898217201,0.439420879,-0.216253698,-4.674975395,32.99876404,1.500071049,0.435926497,-0.540959835,-0.45703277,-0.555384457
1395292,8.99800396,-0.77790463,3.933801651,2.275657415,11.06269932,2.758508205,0.719985902,-0.320494831,-0.446023941,-0.424224257,9.915546417,0.388387948,-0.133830801,-4.360644341,34.33652115,1.717729211,0.438236773,-0.53826797,-0.454743207,-0.558054447
1395459,8.98922348,-0.778187394,3.88086772,2.240824223,10.65868568,3.058919668,0.72089684,-0.319839329,-0.444859743,-0.424394101,9.99266243,0.3873052,-0.043139171,-3.610831261,36.47643661,2.108466387,0.440748781,-0.535386026,-0.452313095,-0.560816526
1395626,9.053452492,-0.832638085,3.943279505,1.138696551,12.82847977,2.913798332,0.721963346,-0.319073766,-0.443464011,-0.424618334,9.934971809,0.416047037,0.080894999,-2.972894192,38.44932175,2.422929049,0.443443567,-0.53231895,-0.449757606,-0.563659847
1395792,8.960837364,-0.794417977,3.991314173,2.305342674,12.34064579,2.603679657,0.722985923,-0.318240315,-0.442171603,-0.424851626,9.925628662,0.419089556,0.153658241,-2.431427479,40.3629303,2.46807313,0.446281105,-0.529060662,-0.447088063,-0.566604376
1395959,8.938017845,-0.785414696,3.976961374,2.735367537,13.57906151,2.533296108,0.724071026,-0.317310929,-0.440754503,-0.425171137,9.85871315,0.410655886,0.261132032,-1.932477355,42.16015625,2.643176794,0.449274272,-0.525616586,-0.44431144,-0.569620311
1396126,8.899006844,-0.800175428,4.062765121,2.233191967,13.87153339,3.025866985,0.725234687,-0.316388935,-0.439292639,-0.42538774,9.814200401,0.368714333,0.386643291,-1.751613259,43.63363647,2.771472931,0.452324063,-0.522066236,-0.441380918,-0.572741508
1396292,8.932804108,-0.852985144,4.05712986,1.940630674,13.38576221,3.356104612,0.72639066,-0.31552729,-0.437861323,-0.42553091,9.791461945,0.368468046,0.529488087,-0.749138117,44.32130814,2.741723776,0.455455303,-0.518386662,-0.438453525,-0.575842202
1396459,8.961544037,-0.83743453,4.056533337,1.88410306,13.59483814,3.598963737,0.727582574,-0.314660728,-0.436400652,-0.425637096,9.769886971,0.371668935,0.66620928,-0.190252498,45.09069443,2.814951897,0.458514392,-0.514705896,-0.435361028,-0.57905364
1396626,8.915863991,-0.807789147,4.119297028,2.290666819,14.08875561,3.624295712,0.728724778,-0.31381923,-0.4348391,-0.425902516,9.768811226,0.383470982,0.832205772,0.220584586,45.39477539,2.632985592,0.461588651,-0.510938704,-0.432278097,-0.58224839
1396792,8.962037086,-0.82424283,4.110542774,2.167815924,13.15001106,4.221712589,0.72984761,-0.313073099,-0.433349371,-0.426046938,9.748517036,0.364120662,0.961690843,0.488777101,45.7088623,2.512348652,0.464672506,-0.507097185,-0.429187208,-0.585431814
1396959,8.959722519,-0.839008152,4.174367428,1.090454936,13.51121426,3.867884874,0.730972767,-0.312341422,-0.431808621,-0.426219463,9.684869766,0.355724603,1.115509033,0.78673178,45.42074203,2.368660212,0.467728019,-0.503229141,-0.426133245,-0.588558972
1397126,8.93764782,-0.848136008,4.206037521,0.016565027,14.23436451,3.323499918,0.731995821,-0.311705142,-0.430103123,-0.426653683,9.614668846,0.376146734,1.228313088,0.971233904,44.76692963,2.250302792,0.470726609,-0.499375522,-0.423130155,-0.59160918
1397292,8.847575188,-0.858498812,4.25475359,0.763841689,15.51324654,3.271941423,0.733166218,-0.310864449,-0.42833814,-0.427033275,9.489114761,0.361234039,1.391870141,1.069228411,43.35707474,1.911917448,0.473597527,-0.495595425,-0.420239568,-0.594549596
1397459,8.749495506,-0.851220012,4.341351032,2.106563091,15.98167992,3.50622201,0.734469831,-0.309831053,-0.42661792,-0.427265972,9.454440117,0.349625081,1.535212398,1.347703099,40.82493591,1.473295569,0.476278603,-0.491969675,-0.417563468,-0.597298443
1397626,8.734470367,-0.842547894,4.353917599,2.970954418,16.21275902,3.682937145,0.735832632,-0.308702409,-0.424914807,-0.427435488,9.523777008,0.324755639,1.700385213,1.958670974,38.57133484,1.247530699,0.47883153,-0.488467127,-0.415098697,-0.599844575
1397792,8.721261978,-0.872640252,4.390625,2.952884436,15.90818501,3.814496279,0.737191975,-0.307588637,-0.423243582,-0.427553713,9.581747055,0.339281738,1.832986236,2.630520105,36.96928787,1.057713509,0.481305003,-0.485031158,-0.412804842,-0.602231324
1397959,8.727628708,-0.870798826,4.434418678,2.192993641,16.19190979,3.744535685,0.738456607,-0.306599379,-0.42144686,-0.427856654,9.583861351,0.337160826,1.912744284,2.862200499,35.78409576,1.027592659,0.483708203,-0.481667161,-0.410604626,-0.604505897
1398126,8.709096909,-0.867263615,4.492450237,1.557298303,16.114748,3.654686213,0.739729047,-0.305624992,-0.419657379,-0.428114623,9.591674805,0.353746235,2.011975765,2.872265816,35.24617004,0.767455995,0.486044645,-0.478321075,-0.408450067,-0.606744111
1398292,8.643451691,-0.866786003,4.591063023,1.217340827,16.63485718,3.456379652,0.740978062,-0.304664642,-0.417780131,-0.428475022,9.670833588,0.38240236,2.09993124,2.6383183,35.6201973,0.434937596,0.488345146,-0.474925786,-0.40626049,-0.609029591
1398459,8.61626339,-0.882941604,4.581093788,1.528023124,16.51528358,3.543808937,0.742283046,-0.303636432,-0.415961683,-0.428715289,9.689943314,0.471210063,2.217547655,1.91446209,36.64726257,-0.003803504,0.49060449,-0.471451849,-0.403953046,-0.611443043
1398626,8.60892868,-0.904502869,4.615120888,1.688563943,16.90654755,3.518529654,0.743581951,-0.302591026,-0.414088815,-0.42901659,9.642421722,0.452970654,2.334561825,0.865617573,37.7723999,-0.08249893,0.492836714,-0.467933804,-0.401465714,-0.613983154
1398792,8.585186958,-0.900853217,4.649629116,2.054838419,17.28137398,3.757572651,0.744973004,-0.301454455,-0.412214816,-0.429207951,9.574626923,0.476178914,2.449242115,-0.005365888,38.51444244,0.209212005,0.495064288,-0.464414269,-0.398815483,-0.616585076
1398959,8.610199928,-0.942981541,4.719215393,2.556297779,18.05659866,3.716259956,0.74639976,-0.300234854,-0.410269558,-0.429448158,9.499155998,0.468429506,2.514113426,-1.105885386,38.45023346,0.717293799,0.497244239,-0.460994273,-0.396024585,-0.619190812
1399126,8.514556885,-0.908594668,4.790039539,2.409216642,18.58434868,3.681029797,0.747822881,-0.29901278,-0.408242315,-0.429756224,9.417969704,0.437875569,2.572127104,-1.999311924,37.97592926,1.15975523,0.499361634,-0.457692385,-0.3931458,-0.621765316
1399292,8.47756958,-0.919484317,4.874573708,1.719824433,18.64274406,3.723469973,0.749219537,-0.297860026,-0.406162411,-0.430095255,9.397324562,0.378673196,2.656249046,-2.648110151,37.25403214,1.372636318,0.501399159,-0.454501241,-0.390235126,-0.624294996
1399459,8.470938683,-0.908751547,4.935558796,1.044160604,18.53075409,3.654251575,0.750589192,-0.296764433,-0.404064387,-0.430440575,9.427323341,0.3457717,2.780993223,-2.961533785,36.84146881,1.421261907,0.503382802,-0.451359928,-0.387311637,-0.626793325
1399626,8.449241638,-0.917042613,5.017516136,0.834366739,18.76225471,3.570293427,0.751954257,-0.295667738,-0.401929706,-0.430811137,9.487468719,0.352098674,2.916722775,-3.132077217,37.29026031,1.24276638,0.505349994,-0.448167086,-0.384340107,-0.62932533
1399792,8.39601326,-0.930606604,4.989562511,0.7647385,18.74640083,3.543899059,0.753291786,-0.294590265,-0.39977926,-0.43121323,9.493998528,0.370024979,3.048918962,-3.694637537,38.22679901,0.893164217,0.507286072,-0.444896817,-0.381259412,-0.631956458
1399959,8.399209023,-0.919896662,4.990198135,0.558338284,19.08328438,3.841481209,0.754631817,-0.293548852,-0.397548437,-0.431642801,9.384433746,0.352769971,3.145806074,-3.949870586,38.7702179,0.609630287,0.509194136,-0.441565633,-0.378121525,-0.634637892
1400126,8.407074928,-0.976767957,5.049230576,0.11925932,19.88232994,3.839227915,0.756012022,-0.29248482,-0.395212352,-0.432094514,9.281378746,0.343044519,3.249024391,-4.177824974,38.87129974,0.285179704,0.511047304,-0.438209951,-0.37496376,-0.637342036
1400292,8.394942284,-0.989203155,5.145473957,0.107605524,20.7025013,3.364624262,0.757406473,-0.291337073,-0.392804742,-0.432623118,9.247486115,0.331664413,3.308401585,-4.068547249,38.3944397,0.104711667,0.512849033,-0.434866518,-0.371851116,-0.640003145
1400459,8.279925346,-1.018986106,5.19594574,-0.022949012,20.63462639,3.325615406,0.758774459,-0.290210456,-0.390388936,-0.433169514,9.161505699,0.290795952,3.379869938,-3.895621538,37.74319839,0.018140286,0.514603019,-0.431552619,-0.368797034,-0.642600179
1400626,8.235025406,-1.013733625,5.186909676,0.623510122,20.46573448,3.532886267,0.760167181,-0.289031088,-0.388020635,-0.433643788,9.180429459,0.215628669,3.463067293,-3.320766211,36.78926849,-0.071754321,0.516318858,-0.428267479,-0.365862668,-0.645094097
1400792,8.345624924,-1.011825085,5.207947731,-1.081485152,21.7325058,3.178047895,0.761536717,-0.287931681,-0.385420203,-0.434290737,9.189009666,0.27194491,3.571988344,-2.410191774,36.36521149,0.12599586,0.51807344,-0.424952686,-0.363022625,-0.647479594
1400959,8.223039627,-1.019716501,5.304763794,-1.829153895,23.48221588,2.248056412,0.7629053,-0.28674984,-0.382613391,-0.435151666,9.168113708,0.344896704,3.721204996,-1.970970154,36.00600052,-0.328650832,0.519779444,-0.421603203,-0.36026898,-0.649835765
1401126,8.195531845,-0.99548918,5.358245373,-1.063505411,22.83073616,1.601942778,0.764232099,-0.285474777,-0.379957706,-0.435988337,9.13274765,0.390188009,3.829909086,-2.305665731,36.09608459,-1.343597174,0.521359622,-0.418205708,-0.357529163,-0.652273715
1401292,8.184466362,-1.039296865,5.44114399,-1.410033226,24.1184597,1.536541104,0.765590608,-0.284159511,-0.377127588,-0.436920464,9.110833168,0.393265069,3.945909262,-3.047054768,36.33951187,-2.193968534,0.522812486,-0.414785355,-0.354742408,-0.654811323
1401459,8.034770966,-1.060632706,5.500051975,-0.884677231,23.63622093,1.867688179,0.766955674,-0.282831818,-0.374365807,-0.437762111,9.025224686,0.359683514,4.001187801,-3.409437895,36.58480453,-2.431655884,0.524219096,-0.411345154,-0.351906866,-0.657382131
1401626,8.202508926,-1.070015788,5.499650002,-0.652113438,24.01558495,2.221003294,0.76836282,-0.281471401,-0.371556014,-0.438564479,8.993832588,0.387293071,4.084853649,-3.619309187,36.5762558,-2.196568489,0.525620461,-0.407921851,-0.349027783,-0.659926295
1401792,8.046122551,-1.048857093,5.577005863,-0.792010427,25.19742584,1.875769377,0.769816399,-0.280011743,-0.368627995,-0.439419806,9.005610466,0.411890149,4.237775803,-3.822854757,36.92707825,-1.850628853,0.527045906,-0.404486299,-0.34607178,-0.662456036
1401959,7.92017889,-1.031198025,5.632788181,-0.78715682,25.28800392,1.618553281,0.771224678,-0.278548539,-0.365680456,-0.440342367,9.012217522,0.377606928,4.350040436,-4.161239624,37.67816925,-1.215379953,0.528535068,-0.401024133,-0.34297809,-0.664978623
1402126,7.954547882,-1.036974311,5.641998291,-1.067270517,24.84959221,1.662971854,0.77259469,-0.277139932,-0.362759858,-0.441244006,8.931495667,0.327471048,4.481368065,-3.710595131,38.38911057,0.0035922,0.530187964,-0.397507042,-0.339791685,-0.667405903
1402292,7.915386677,-1.061143875,5.745913029,-1.009155512,25.74266243,1.703959465,0.774015546,-0.275658041,-0.359742254,-0.442151785,8.815709114,0.306137621,4.592006207,-2.501029253,38.29310226,1.391794801,0.53202486,-0.393962234,-0.336638987,-0.669640005
1402459,7.857395649,-1.132642269,5.827733994,-1.515891075,26.39957428,1.359685302,0.775410056,-0.274175286,-0.35662204,-0.443156958,8.711504936,0.305786997,4.682731152,-1.037101746,37.48258209,2.479839802,0.533996284,-0.390424311,-0.333618581,-0.671651363
1402626,7.802744389,-1.161406517,5.852688313,-0.898047686,26.75826454,0.866716802,0.776800752,-0.272573411,-0.353513032,-0.444199324,8.635422707,0.332087815,4.800681114,0.638866961,36.04865265,2.991558075,0.536028624,-0.386909902,-0.330834299,-0.673441112
1402792,7.727567196,-1.148451447,5.903428555,-0.658055902,27.00749969,0.662070692,0.778191328,-0.270911902,-0.350395411,-0.445250809,8.660484314,0.425293714,5.011006355,1.748170495,34.9077301,2.672677517,0.538023472,-0.383394748,-0.328256249,-0.675120115
1402959,7.679562092,-1.125582695,5.995926857,-0.656698406,26.32247162,0.615698814,0.779533088,-0.269287914,-0.347352266,-0.446272343,8.64466095,0.529168308,5.103121758,1.350160122,34.36788559,1.492029428,0.539841056,-0.379896909,-0.32573849,-0.67686367
1403126,7.64718771,-1.108964086,6.029946327,-0.520579278,24.94585419,1.134510398,0.780833066,-0.267760754,-0.344448298,-0.447168231,8.588226318,0.483521074,5.18893528,0.102560043,33.59204865,0.518896103,0.541444302,-0.376517147,-0.323204666,-0.678683937
1403292,7.662494659,-1.096980691,6.058483601,-0.525714517,24.50690079,1.688872933,0.782135248,-0.266288459,-0.341566712,-0.44798106,8.480330467,0.425222278,5.266809464,-1.236726761,32.66710281,0.269504249,0.542893827,-0.373312742,-0.320617408,-0.680520713
1403459,7.526464462,-1.034827352,6.180580139,0.351720691,24.11133766,1.756183028,0.783446252,-0.264742464,-0.338780582,-0.448721677,8.389814377,0.405228853,5.343873501,-2.062482357,31.12422562,-0.095843039,0.544179201,-0.370300472,-0.318082809,-0.682326913
1403626,7.488586903,-0.91407752,6.248868942,0.771782517,23.08322716,1.714369893,0.784710765,-0.263210297,-0.33613646,-0.449401498,8.33535862,0.420550406,5.436794758,-3.142533541,28.93136406,-0.507286608,0.545254111,-0.36756438,-0.315630108,-0.684084833
1403792,7.374753952,-0.949552119,6.348129749,0.072541691,22.6609211,1.203062654,0.785885692,-0.261756986,-0.333510786,-0.450152874,8.275001526,0.398953319,5.502099514,-4.053028107,26.97090149,-1.100695729,0.54612273,-0.365061313,-0.313268155,-0.685815811
1403959,7.298434734,-0.960202098,6.361400127,-0.452180088,20.91740608,1.02992034,0.786937058,-0.26046598,-0.331053197,-0.45087859,8.20334053,0.410022318,5.626456738,-5.155156612,24.42931366,-2.088105917,0.546711087,-0.362848252,-0.311045468,-0.687531114
1404126,7.284861088,-0.956575811,6.399152756,-1.398941875,19.11071396,1.013937593,0.787856638,-0.259399265,-0.328736901,-0.451582074,8.118206978,0.398623705,5.74100256,-6.106731892,21.42208481,-3.269979,0.546988964,-0.360952675,-0.309024632,-0.689217031
1404292,7.213551521,-0.992856801,6.426391602,-1.46555984,16.80793381,0.932578444,0.788653731,-0.258484215,-0.326681346,-0.452206194,8.116082191,0.352472991,5.796732903,-6.841660976,18.05374336,-4.292604923,0.546969831,-0.359402537,-0.307247847,-0.690834761
1404459,7.14899826,-1.00528264,6.473575592,-0.327970892,14.64940739,0.836748421,0.789381504,-0.257573903,-0.324950188,-0.452703178,8.134884834,0.30890274,5.899860859,-6.683869839,14.34210682,-4.513255596,0.546767771,-0.358199358,-0.305790484,-0.692264795
1404626,7.147119999,-1.052978396,6.444126129,0.7124753,12.30482864,0.657958567,0.790022612,-0.256688386,-0.323561668,-0.453081846,8.120938301,0.298952788,5.960439205,-5.804993629,10.93949032,-4.069859982,0.546503067,-0.357285947,-0.30466634,-0.693440437
1404792,7.149713993,-1.07151711,6.476632118,0.990462601,10.26217365,0.103353679,0.790539205,-0.255878806,-0.322445512,-0.453434378,8.106505394,0.332649857,5.963444233,-4.491751671,7.620529175,-3.179830313,0.546248615,-0.356640339,-0.30388999,-0.694313407
1404959,7.142986298,-1.132408023,6.546380043,0.813440204,8.323379517,-0.518849313,0.790915847,-0.255187631,-0.321562827,-0.453793734,8.10026741,0.425247699,5.967250824,-3.596241951,4.773830414,-2.303171158,0.546003163,-0.356248289,-0.303383142,-0.694929183
1405126,7.099987984,-1.155006886,6.579843521,0.679562688,6.264297485,-0.899031579,0.791165531,-0.254629642,-0.320921332,-0.45412606,8.091720581,0.420575857,5.925970078,-2.624456406,1.972248316,-1.162573218,0.545799851,-0.356111228,-0.303136766,-0.695266604
1405292,7.077498436,-1.150787234,6.609305859,0.678717315,4.060361385,-0.931392968,0.791309774,-0.254215717,-0.320533663,-0.454380363,8.130366325,0.466865867,5.901163101,-1.997918487,-0.299783826,0.013760422,0.545648038,-0.356204987,-0.303072214,-0.695365727
1405459,7.050211906,-1.139473796,6.629403591,0.56421572,1.801833987,-0.741756499,0.791357398,-0.253972948,-0.320390552,-0.454534322,8.102345467,0.423732042,5.847290039,-1.258159876,-2.305142879,1.116860986,0.545557976,-0.356490582,-0.303183883,-0.695241451
1405626,7.090307236,-1.136300325,6.649924755,0.783050656,0.058749124,-0.445494473,0.791351199,-0.253834277,-0.320450366,-0.454580396,8.175776482,0.399618208,5.871450424,-0.118958205,-4.210049629,2.046141148,0.545537055,-0.356918514,-0.303512901,-0.694894731
1405792,7.08359766,-1.128099561,6.608462334,1.181533217,-1.828477979,-0.046794403,0.791298807,-0.253792584,-0.320738643,-0.454491347,8.157504082,0.406418622,5.83985424,0.928377151,-6.063051224,2.893767595,0.545574188,-0.357487082,-0.304049879,-0.694338202
1405959,7.110384941,-1.135078907,6.586508751,1.396500468,-3.288171291,0.1756455,0.791202128,-0.253832251,-0.321200788,-0.454311073,8.110328674,0.342179507,5.836267471,1.463029742,-8.137349129,3.452624559,0.545603335,-0.358246446,-0.304775387,-0.693605363
1406126,7.118984222,-1.093589902,6.576374531,1.405029535,-4.711597443,0.461624116,0.791058123,-0.253978252,-0.321816117,-0.45404461,8.0776577,0.298716664,5.800927162,2.517953634,-10.79131413,3.561377287,0.54557997,-0.359193236,-0.30581069,-0.692677796
1406292,7.108163834,-1.065859079,6.555327892,1.513512254,-6.314606667,0.493640035,0.790845752,-0.254218251,-0.322621644,-0.453708649,8.085475922,0.250222534,5.783802986,3.897442579,-14.17583466,3.318634033,0.545451999,-0.360358804,-0.30726406,-0.691529155
1406459,7.102118969,-1.058698177,6.548256397,1.876508236,-7.942948341,0.392674804,0.790562332,-0.254519373,-0.323640913,-0.453307837,8.101868629,0.220388129,5.743102551,5.223005295,-17.48205757,3.064786911,0.545217454,-0.361737818,-0.309123248,-0.690164328
1406626,7.135472298,-1.045027614,6.52383852,2.378479242,-9.883956909,0.153272837,0.790192187,-0.254876316,-0.324926138,-0.452832758,8.150241852,0.173952252,5.709122658,6.990702629,-20.8333149,2.85547471,0.544899881,-0.363299966,-0.31143263,-0.688554406
1406792,7.136460781,-1.051707506,6.522464275,3.121812105,-11.40904236,-0.281816691,0.78974545,-0.255228281,-0.326449513,-0.452318251,8.296431541,0.179873392,5.685257435,9.311153412,-23.79327583,3.242555618,0.544603527,-0.364987522,-0.314183325,-0.686644197
1406959,7.191356659,-1.031956792,6.477674484,3.86392808,-13.31920147,-0.728758574,0.789201021,-0.255600303,-0.32825461,-0.45175159,8.497638702,0.38071692,5.640719414,10.91784573,-24.90607262,3.02692318,0.544312358,-0.366643399,-0.317188025,-0.684608281
1407126,7.303800106,-1.019892216,6.412897587,3.591421843,-15.05875587,-1.138933539,0.788531423,-0.256098151,-0.330253989,-0.451180995,8.406533241,0.437320113,5.533549309,11.11097908,-25.43980598,2.898052692,0.543985307,-0.368324906,-0.320255339,-0.682534456
1407292,7.39333725,-1.047276258,6.442871094,3.501214266,-15.80203724,-0.976164877,0.787829697,-0.256661534,-0.332324922,-0.450565934,8.383638382,0.451266766,5.413473606,11.13557053,-27.20092392,3.011159897,0.54357934,-0.370177597,-0.323452145,-0.680344701
1407459,7.337783813,-1.005384326,6.427558422,3.268984795,-17.1961441,-0.761415184,0.787062347,-0.257350832,-0.33453089,-0.44988057,8.391627312,0.451630354,5.303108215,11.18800545,-29.28826141,3.540551662,0.54311949,-0.372249693,-0.326783717,-0.677985132
1407626,7.365778446,-0.990402281,6.359387875,3.119867325,-18.45005226,-0.610441089,0.786236763,-0.258141696,-0.33686468,-0.449129254,8.439369202,0.484900147,5.226029873,11.0164957,-31.4442482,4.055089951,0.542586446,-0.374563754,-0.330232948,-0.67546159
1407792,7.413679123,-0.98978883,6.279191971,3.183272839,-19.59899521,-0.732716322,0.785333753,-0.258999944,-0.339329958,-0.448358327,8.518208504,0.512512386,5.151433468,10.47757816,-33.4867897,4.72465992,0.541978002,-0.377143234,-0.333745241,-0.672783077
1407959,7.46425581,-0.982400179,6.243281841,3.038419724,-20.50838852,-0.944610596,0.784365535,-0.25991711,-0.341897815,-0.447571158,8.618844986,0.562305868,5.053789139,9.544815063,-34.90828323,5.443076134,0.541304708,-0.379959464,-0.337229341,-0.669997334
1408126,7.52534008,-0.925500154,6.206125736,3.153126717,-21.54491234,-0.982530296,0.783336222,-0.260887623,-0.344586998,-0.446746111,8.67374897,0.579264343,4.916443348,8.028154373,-35.80827713,5.621483326,0.54050523,-0.382980287,-0.340616882,-0.667203546
1408292,7.587404251,-0.90763557,6.211042404,2.741966009,-22.03995705,-1.091371894,0.782256067,-0.261924386,-0.347309768,-0.445922643,8.739258766,0.586690962,4.78674984,6.353088856,-36.366642,5.747486115,0.539581001,-0.386181653,-0.343868643,-0.664432585
1408459,7.59684515,-0.901260376,6.127949715,1.861886382,-22.74178696,-0.971286535,0.781062245,-0.263148397,-0.350018889,-0.445176154,8.740308762,0.534666121,4.640230656,4.692455769,-36.94234085,5.77311182,0.538520813,-0.389558583,-0.346993506,-0.66169107
1408626,7.679278374,-0.922360957,6.051605225,1.20584166,-23.37114143,-0.888083518,0.77984333,-0.264458001,-0.352772385,-0.444362611,8.78574276,0.490085781,4.518262386,3.467612028,-37.4512558,5.6754632,0.537339687,-0.393063724,-0.350035459,-0.658970714
1408792,7.729537964,-0.928269744,6.023308277,0.899871886,-23.08937836,-0.739747345,0.778631568,-0.265786171,-0.355466425,-0.443547487,8.816242218,0.440728515,4.429243088,2.573096991,-38.09021378,5.57539463,0.536048532,-0.396682858,-0.353036463,-0.656247079
1408959,7.726697922,-0.927228868,5.981077671,0.555943906,-23.30401421,-0.635106504,0.7773785,-0.26718241,-0.358145177,-0.44275108,8.836940765,0.355860531,4.309762478,1.997192979,-38.95975494,5.624099255,0.534666955,-0.400419891,-0.356036037,-0.653478146
1409126,7.739442348,-0.932703137,5.883806705,0.49615097,-24.0324955,-0.407857448,0.77610904,-0.268625438,-0.360900611,-0.441866398,8.957821846,0.309327036,4.207319736,1.938553095,-40.10874557,5.656770229,0.533207655,-0.404259205,-0.3591052,-0.650620997
1409292,7.879418373,-0.946197629,5.765645981,-0.908394575,-23.31694984,-0.835743904,0.774879217,-0.270070344,-0.363559037,-0.440963686,8.978462219,0.284303039,4.089040279,2.372550726,-41.02333832,5.57788372,0.531699836,-0.408133507,-0.362277955,-0.647670567
1409459,7.912893295,-0.97868526,5.785505295,-0.562494338,-22.66183853,-1.360549212,0.773553669,-0.271495312,-0.366116315,-0.440299749,9.052550316,0.298704594,3.949067354,2.605499744,-41.5776062,4.860891342,0.530089736,-0.411989778,-0.365544409,-0.644706607
1409626,7.931379318,-0.904904664,5.734871864,-0.310810715,-23.03031921,-1.72499299,0.77219528,-0.272885382,-0.368747264,-0.43962875,9.07361412,0.299208909,3.840319872,2.588544846,-42.07635117,4.198441505,0.528370142,-0.415843993,-0.368873537,-0.64174068
1409792,7.974649429,-0.958491683,5.704810143,-0.837062895,-22.67064857,-1.394549966,0.770870388,-0.274305791,-0.371301919,-0.438919276,9.111039162,0.274019182,3.700052738,2.492471218,-42.40246582,3.924294233,0.526581585,-0.419705957,-0.372220993,-0.638756812
1409959,7.991696358,-0.993737578,5.619628906,-0.717348993,-23.31422043,-0.911301434,0.769512534,-0.275799841,-0.373896331,-0.438162655,9.170395851,0.254799873,3.604299068,2.49709487,-43.00353241,4.042088985,0.524751306,-0.423614055,-0.375593066,-0.635702014
1410126,8.033528328,-0.988886237,5.56246376,-0.348102868,-23.73538589,-0.738863766,0.768139899,-0.277294457,-0.376543969,-0.437359989,9.204105377,0.264395833,3.500803232,2.524590254,-43.35289383,4.028680325,0.522881627,-0.427535385,-0.378979981,-0.63259989
1410292,8.077851295,-0.96695137,5.510100842,-0.132289857,-24.10308075,-0.829494476,0.766761839,-0.278758436,-0.379260987,-0.436499089,9.237261772,0.286473513,3.363952875,2.308007956,-43.78168869,3.949575663,0.520946443,-0.431491435,-0.382368863,-0.629463494
1410459,8.099246979,-0.943965733,5.448025703,-0.512523949,-24.29899788,-1.018004537,0.765305877,-0.280295491,-0.3819561,-0.435719132,9.277514458,0.281121433,3.257453918,2.099557877,-44.13539124,3.744007111,0.518938184,-0.435466886,-0.385762364,-0.626305938
1410626,8.121212959,-0.959879637,5.369112968,-0.469456136,-24.34860992,-1.045000315,0.763799191,-0.281862438,-0.384629756,-0.434999347,9.345484734,0.243832305,3.069478512,1.703493595,-44.55234146,3.831027985,0.516867816,-0.439497352,-0.389129519,-0.623111606
1410792,8.154673576,-0.97742033,5.321038723,-0.191352874,-24.19270515,-0.856349528,0.762271821,-0.283436567,-0.387261957,-0.434319854,9.386331558,0.215082332,2.949168682,1.930333734,-44.54685593,3.98373127,0.514804304,-0.443501025,-0.392490506,-0.619866788
1410959,8.226127625,-0.995031238,5.273539543,-0.544501483,-23.99317932,-0.897829354,0.760763764,-0.285001904,-0.389868349,-0.43360734,9.399765968,0.193904057,2.820359707,1.93313849,-44.55395126,4.16822052,0.512735367,-0.447497547,-0.395823628,-0.616581142
1411126,8.271101952,-0.95782125,5.216226578,-0.916168094,-24.15017319,-1.11261785,0.759317636,-0.286496133,-0.39254877,-0.432738125,9.417487144,0.210255191,2.659323931,1.935444236,-45.09475327,4.103831291,0.510607779,-0.451520175,-0.399184316,-0.613238275
1411292,8.348690033,-0.962215006,5.122157574,-1.566078901,-23.85850906,-1.34003365,0.757815182,-0.288049191,-0.395145476,-0.431976914,9.50722599,0.216578901,2.552451134,1.733947754,-45.11167145,3.860944271,0.508422256,-0.455526352,-0.402526945,-0.609897316
1411459,8.370693207,-0.954211831,5.118269444,-0.710343957,-23.2508049,-1.239131808,0.756383657,-0.289469063,-0.397722542,-0.43117097,9.503255844,0.218131796,2.438335657,1.240374207,-44.84352112,3.594070435,0.506174088,-0.459510714,-0.405806303,-0.606596351
1411626,8.355344772,-0.955090284,5.032167912,-0.112145409,-23.62586403,-1.040594697,0.754737794,-0.291080475,-0.400205225,-0.430672824,9.53635788,0.194468364,2.305390835,0.95585382,-45.40598297,3.608900785,0.503853083,-0.46354717,-0.409083337,-0.603247106
1411793,8.511623383,-0.969465673,4.859603882,-1.082932711,-23.21007156,-1.070856333,0.753206789,-0.292624146,-0.40267998,-0.42999959,9.563243866,0.197697833,2.159864664,0.686291039,-45.8819313,3.579497576,0.501460731,-0.467623562,-0.412355423,-0.599856973
1411959,8.472075462,-0.990087926,4.912621021,-0.438374937,-22.26267433,-1.555538893,0.751651227,-0.294078708,-0.405057162,-0.429496318,9.529533386,0.239019364,2.05736804,0.436552525,-46.05077362,3.335752487,0.498997629,-0.471697956,-0.415616125,-0.596461117
1412126,8.529208183,-0.905025423,4.851194859,0.528947949,-22.6447258,-1.894075036,0.750085592,-0.295430034,-0.407545894,-0.428951234,9.595303535,0.240434289,1.909116983,-0.200933173,-46.51703644,3.08598876,0.496418029,-0.475822955,-0.418853611,-0.593062639
1412293,8.530994415,-0.908200145,4.848572254,-0.308274955,-21.9361763,-1.993068457,0.74856317,-0.296768308,-0.409942031,-0.428403437,9.638820648,0.218211651,1.772475719,-0.795882344,-46.65290451,2.993244648,0.493758172,-0.479975671,-0.422036856,-0.58967036
1412459,8.536336899,-0.912379086,4.762840748,-0.850035846,-22.31177711,-1.545998335,0.747000992,-0.298229814,-0.412309647,-0.427842557,9.667331696,0.15615958,1.645805597,-0.995291471,-46.61873627,2.84178257,0.491050601,-0.484108925,-0.4251917,-0.586276352
1412626,8.621096611,-0.919613004,4.70407629,-1.241334319,-21.82684517,-1.363583922,0.745560706,-0.299599588,-0.414667487,-0.42711851,9.710163116,0.132058829,1.510337234,-0.859056473,-46.24869537,2.728356123,0.488343418,-0.488172352,-0.428320318,-0.582881033
1412793,8.628623009,-0.919941902,4.680350304,-1.682091236,-21.75889397,-1.462756515,0.744075656,-0.301020801,-0.416979045,-0.426458001,9.732723236,0.135554031,1.356254935,-0.9066962,-45.85303879,2.600803375,0.48562479,-0.492176414,-0.431406498,-0.579499424
1412959,8.595026016,-0.90449363,4.608308315,-1.189494133,-21.67711258,-1.555781841,0.742611885,-0.302366316,-0.419318378,-0.425763369,9.759653091,0.175793409,1.260584116,-1.041983247,-45.49773788,2.18324852,0.482862145,-0.496112823,-0.434467077,-0.576155245
1413126,8.643565178,-0.894126415,4.547129154,-1.091333389,-21.37963486,-1.73233068,0.741074622,-0.303755045,-0.421574831,-0.425224751,9.792930603,0.174557924,1.095045805,-1.351463556,-44.53186035,1.699587464,0.48007676,-0.499938577,-0.437450081,-0.572909355
1413293,8.692048073,-0.881189585,4.466981888,-1.056819916,-20.82712364,-1.787833214,0.739619136,-0.305037528,-0.423816144,-0.424612403,9.759476662,0.192486838,0.978654504,-1.619028211,-44.05582047,1.470902562,0.477263272,-0.50370872,-0.440376222,-0.569707155
1413459,8.752456665,-0.883309662,4.413144588,-0.785913944,-20.47391129,-1.563593268,0.73819679,-0.306289077,-0.426016301,-0.4239842,9.841197968,0.162098944,0.843026221,-1.876885653,-43.55503464,1.388755322,0.474436581,-0.507430017,-0.443234414,-0.56654042
1413626,8.771519661,-0.880363226,4.362582207,-0.929255664,-19.79885101,-1.512009501,0.736811101,-0.307510376,-0.428132743,-0.423378289,9.863844872,0.153795987,0.733573496,-1.870033503,-42.47967529,1.450526714,0.471666098,-0.511047006,-0.445997149,-0.563425958
1413793,8.773882866,-0.887432635,4.309113503,-1.084955335,-19.01974678,-1.531910539,0.735475421,-0.308679253,-0.430166066,-0.42278862,9.797263145,0.15394111,0.586826503,-1.943298578,-41.28019714,1.593113303,0.468962073,-0.514561474,-0.448644489,-0.560374379
1413959,8.786837578,-0.853874803,4.301460266,-1.548007727,-18.99131584,-1.342734575,0.734187305,-0.309836477,-0.432204574,-0.422101527,9.800544739,0.173733354,0.4627617,-1.998096466,-40.70317078,1.38269043,0.466257632,-0.51800108,-0.451247811,-0.55736357
1414126,8.827803612,-0.864314914,4.245790958,-2.567970991,-18.88700867,-1.44822073,0.732756078,-0.311191708,-0.434097677,-0.421648979,9.87471199,0.139833435,0.321641594,-2.330717802,-40.07959747,1.403462291,0.463540733,-0.521410167,-0.453749448,-0.554412186
1414293,8.879104614,-0.895531237,4.140264511,-1.458734393,-17.88731194,-1.137896538,0.731460631,-0.312374383,-0.435942292,-0.421119899,9.886175156,0.118914172,0.213357478,-2.284357548,-38.83011246,1.40396142,0.460867196,-0.524726033,-0.456124365,-0.551556587
1414459,8.889293671,-0.907748997,4.123461246,-1.566038847,-16.92955017,-1.111579418,0.730221748,-0.313505918,-0.437677324,-0.420629203,9.870970726,0.141399324,0.132716715,-2.134419203,-37.52352142,1.171537042,0.458337545,-0.527818382,-0.458516866,-0.548723042
1414626,8.899448395,-0.871281803,4.075924873,-1.205462694,-16.56344032,-1.170603752,0.729034722,-0.314547867,-0.439412087,-0.420101285,9.900764465,0.109724864,0.018261787,-2.337797165,-36.2283783,1.191604257,0.455844551,-0.530829072,-0.46076709,-0.54600352
1414793,8.91587925,-0.881594002,4.042063236,-0.592409492,-16.19164467,-0.9722718,0.727916121,-0.31550315,-0.441140473,-0.419513017,9.911435127,0.088658661,-0.108843461,-2.089672327,-34.96473694,1.205870271,0.453447223,-0.533707023,-0.462943733,-0.543346584
1414959,8.939880371,-0.887623727,3.985856533,-1.778470516,-16.14928246,-1.180989623,0.726723969,-0.3165721,-0.442795277,-0.419031054,9.846803665,0.098568149,-0.197974652,-1.88996911,-33.96364594,1.000109553,0.451099932,-0.53647095,-0.465068817,-0.540757596
1415126,9.00566864,-0.878113627,3.942276478,-1.732726216,-15.48177624,-1.149537325,0.725572944,-0.317598075,-0.444376975,-0.418574363,9.816930771,0.099126823,-0.293439925,-1.671939611,-33.23272324,0.937127471,0.448814601,-0.539134622,-0.467170805,-0.538192213
1415293,8.98017025,-0.885808825,3.890715361,-1.09336853,-14.95594406,-1.128393888,0.724478841,-0.318529725,-0.445935667,-0.418103784,9.879362106,0.099487171,-0.387508422,-1.482506871,-32.52962875,0.984178007,0.446599364,-0.54170692,-0.469245076,-0.535641432
1415459,9.010055542,-0.883338094,3.862613678,-0.218041077,-14.58438206,-1.020308256,0.723460913,-0.319342166,-0.447508484,-0.417565644,9.884455681,0.127864569,-0.453357309,-1.19089222,-31.39546776,0.933720708,0.444459707,-0.544168293,-0.471249521,-0.533160865
1415626,9.041365623,-0.869907498,3.788291931,-0.062981665,-13.51645756,-0.960540831,0.722521901,-0.32007426,-0.448975205,-0.417056441,9.85813427,0.115349114,-0.531962872,-1.216389418,-30.03946686,0.961177289,0.442418545,-0.546501696,-0.473171175,-0.530764461
1415793,9.094594002,-0.877080619,3.789526224,-0.042030465,-12.9846077,-1.06218493,0.721592724,-0.320784181,-0.4503766,-0.416608155,9.827991486,0.096023276,-0.56959033,-0.950234056,-29.69553185,0.92159903,0.440372497,-0.548819184,-0.475038856,-0.528401136
1415959,9.064268112,-0.860561371,3.757453203,-1.093662977,-13.46509171,-1.302432299,0.720570743,-0.321611017,-0.45177862,-0.416221559,9.890648842,0.096250042,-0.650840819,-0.796826184,-29.08758354,0.877269566,0.438373476,-0.551062822,-0.476879478,-0.52606523
1416126,9.080533981,-0.855179012,3.63417387,-1.105790377,-12.92477608,-1.250822425,0.719590962,-0.32240051,-0.45312506,-0.415842175,9.838180542,0.089707814,-0.72111249,-0.363765359,-28.22241783,0.706048012,0.436481267,-0.553155422,-0.478745133,-0.523742676
1416293,9.078496933,-0.857852042,3.662999153,-0.460977644,-12.10631084,-1.104010463,0.718698144,-0.323085696,-0.45441398,-0.415447444,9.820859909,0.116311774,-0.80119884,-0.177778214,-27.56278229,0.357752681,0.434639126,-0.555127203,-0.480632931,-0.521454632
1416459,9.054852486,-0.838200688,3.683751583,-0.36983481,-12.79987717,-1.017055154,0.717758656,-0.323817879,-0.455768824,-0.415017217,9.772109985,0.113523528,-0.880587935,0.066458724,-26.88536072,0.270682096,0.432818919,-0.557051659,-0.482456356,-0.519227564
1416626,9.099063873,-0.855389416,3.638937473,-0.292612433,-12.55975628,-1.262770653,0.716829479,-0.324500322,-0.45712015,-0.414603591,9.692184448,0.099015996,-0.983955562,0.424371451,-26.52260208,0.276163191,0.431064099,-0.558898985,-0.484298855,-0.516982317
1416793,9.106791496,-0.840441048,3.611789703,0.231878251,-12.03904915,-0.791381478,0.715982616,-0.325131029,-0.458422542,-0.414134681,9.72700119,0.146989688,-1.012769699,0.610384226,-26.87254333,0.567137003,0.429291397,-0.560799003,-0.48611623,-0.51468873
1416959,9.095536232,-0.839659035,3.577988386,-0.076979011,-11.85223103,-0.705937564,0.715135217,-0.325789243,-0.459680259,-0.413687468,9.754763603,0.12730436,-1.091565251,0.60910356,-26.88452911,0.667231739,0.427538216,-0.562676072,-0.48794499,-0.512363672
1417126,9.151721954,-0.851247966,3.539284706,-0.301320702,-11.39193058,-1.049391031,0.714288592,-0.326414764,-0.460894644,-0.413305372,9.760251045,0.140064418,-1.167354941,0.532444477,-26.50833893,0.94523257,0.425825715,-0.564533651,-0.489723295,-0.510044575
1417293,9.145046234,-0.853551686,3.500760317,0.1549505,-10.84189892,-0.868104398,0.713504732,-0.326977342,-0.462065428,-0.412907302,9.723052979,0.125765085,-1.278940797,0.526950419,-25.45732689,1.043905497,0.424164891,-0.566339612,-0.4913899,-0.50781852
1417459,9.125702858,-0.843436599,3.441925764,-0.468943089,-10.1753788,-0.766511559,0.712743104,-0.327567369,-0.463126153,-0.412566394,9.708571434,0.120900117,-1.36993444,0.594670594,-25.26723862,1.149519682,0.422531456,-0.568119764,-0.493043333,-0.505584538
1417626,9.211886406,-0.839424074,3.417167425,-1.034522891,-10.26850605,-0.730359197,0.711950243,-0.328221917,-0.464161247,-0.412252158,9.732257843,0.109958418,-1.471400619,0.847494006,-25.1538105,1.165322542,0.420888573,-0.569909036,-0.494655102,-0.503361881
1417793,9.268939018,-0.852005839,3.443225861,-0.730346322,-8.97930336,-1.225043058,0.711225927,-0.328735858,-0.465102315,-0.412032217,9.679490089,0.131158665,-1.51703012,1.017857075,-24.35217857,1.263432145,0.419319183,-0.571629107,-0.496215731,-0.50118053
1417959,9.199968338,-0.81826967,3.549147606,0.429006398,-8.969786644,-1.367001295,0.710550904,-0.32911545,-0.466120511,-0.411742955,9.647334099,0.145750433,-1.519682288,1.125200152,-24.01791,1.183110595,0.417771637,-0.573305547,-0.497764289,-0.499017447
1418126,9.165604591,-0.838785112,3.405487299,1.001937032,-8.522999763,-0.562518954,0.709979415,-0.329464674,-0.467086405,-0.411354959,9.736563683,0.112186201,-1.546293259,0.918319583,-23.9733429,1.727541566,0.416244507,-0.575023949,-0.499243706,-0.496833861
1418293,9.141811371,-0.838209748,3.390916109,-0.577976227,-8.736210823,-0.130560756,0.70934242,-0.330018699,-0.467958242,-0.41101861,9.698010445,0.105181977,-1.582256913,0.97650522,-23.33966637,1.983828902,0.414781958,-0.576704919,-0.500661433,-0.494677514
1418459,9.190156937,-0.828894794,3.36315465,-0.511562526,-8.032079697,-0.409111708,0.708742082,-0.330500484,-0.468776762,-0.410734266,9.639401436,0.108615004,-1.650393248,0.834943473,-23.08223152,1.973826885,0.413320869,-0.578368485,-0.502048254,-0.49254781
1418626,9.21053791,-0.78867048,3.359706163,-1.276371002,-8.46661377,-0.599388599,0.708058119,-0.331079572,-0.46959874,-0.410508215,9.601607323,0.10510201,-1.71592772,0.890536129,-22.97671318,1.873681664,0.411860496,-0.580007434,-0.503435373,-0.490423411
1418793,9.205178261,-0.780661762,3.306890726,-1.724260211,-8.417347908,-0.957339048,0.707326889,-0.331685364,-0.470399588,-0.410362959,9.546719551,0.105978809,-1.772124767,0.608821452,-23.00206757,1.686157703,0.410356611,-0.581644893,-0.504813969,-0.488323152
1418959,9.189082146,-0.810078144,3.263170958,-0.789831638,-8.045295715,-0.758750677,0.706680834,-0.332181036,-0.471211225,-0.41014415,9.518843651,0.073193289,-1.859415531,0.495613098,-23.41360283,1.427405,0.408790052,-0.583292842,-0.506225228,-0.486206204
1419126,9.191851616,-0.813307762,3.235261917,-0.700789213,-8.111747742,-0.624924302,0.706039965,-0.332682312,-0.472026438,-0.409904271,9.525232315,0.086409383,-1.923693895,0.277674228,-23.8927269,1.408182621,0.407163501,-0.584979415,-0.507644773,-0.48405987
1419293,9.256899834,-0.820548773,3.200736046,-0.527557671,-7.644085884,-0.635002971,0.705433309,-0.3331424,-0.472799957,-0.409683168,9.544772148,0.07602419,-2.037167072,0.121987127,-24.38756371,1.225499511,0.405469418,-0.586689293,-0.509091973,-0.481887609
1419459,9.248310089,-0.769364834,3.228606701,-0.715157926,-7.397346973,-0.749696672,0.704832137,-0.333592713,-0.473546535,-0.409489453,9.657456398,0.111937545,-2.097829342,-0.088722572,-24.42199898,0.992231488,0.403733462,-0.588389635,-0.510539889,-0.479735583
1419626,9.290637016,-0.803473532,3.183683157,-0.442753971,-7.188089371,-0.813766718,0.704263449,-0.333985269,-0.474299073,-0.409276664,9.617246628,0.133797273,-2.141387463,-0.200266078,-23.41135788,0.619143367,0.402032048,-0.589991212,-0.511946321,-0.477694243
1419793,9.295110703,-0.790751338,3.201603413,-0.228708595,-6.50996685,-0.865056157,0.703775823,-0.334277153,-0.475021124,-0.409040004,9.564329147,0.124355584,-2.220228672,-1.164521813,-22.85051346,0.383019418,0.400268793,-0.591585994,-0.513267398,-0.475781292
1419959,9.25669384,-0.787662745,3.142142534,1.241492629,-7.415684223,-0.336384445,0.703292191,-0.334553152,-0.475866139,-0.408663481,9.541158676,0.093272917,-2.31730175,-1.650651574,-22.33830643,0.385490954,0.398497701,-0.593167424,-0.514519215,-0.473943263
1420126,9.321388245,-0.830557227,3.105563879,-0.291216433,-6.709323883,-0.529414594,0.702785671,-0.334911197,-0.47657004,-0.408421099,9.505694389,0.109018475,-2.409809589,-1.664162397,-21.8681469,0.388769418,0.396756738,-0.594711423,-0.515737236,-0.472141534
1420293,9.309679031,-0.780164003,3.120785952,0.171637118,-7.148364067,-0.968749225,0.702227175,-0.335239321,-0.477352262,-0.408198893,9.3839674,0.127355456,-2.452876329,-2.092458487,-21.50070572,0.186198249,0.394988477,-0.596233964,-0.516917169,-0.470410526
1420459,9.324144363,-0.746907532,3.065955639,0.714050174,-6.194765568,-0.935440004,0.701767504,-0.335451245,-0.478071779,-0.407973528,9.397471428,0.100539058,-2.494938374,-2.33796978,-21.95552635,0.094069205,0.393154263,-0.59778899,-0.518109143,-0.468658835
1420626,9.272900581,-0.783941746,3.038864374,-0.005839696,-6.212731838,-0.528940678,0.701291621,-0.335769951,-0.4787274,-0.407760888,9.469475746,0.088909931,-2.556651354,-2.427281141,-21.72746849,0.430249244,0.391348392,-0.599353015,-0.519247472,-0.466909587
1420793,9.311328888,-0.804631293,3.007496834,0.504269242,-5.441071987,-0.155059308,0.700934589,-0.335992813,-0.479332417,-0.407480121,9.479010582,0.088563688,-2.640594006,-2.264024734,-20.763937,0.706930697,0.389644593,-0.600857556,-0.520312905,-0.46521157
1420959,9.337712288,-0.827761889,3.066545486,-0.243692055,-4.681118488,-0.295147985,0.700566351,-0.336261362,-0.479805768,-0.407335073,9.434811592,0.081568941,-2.657943726,-2.200927496,-19.59352112,0.67081666,0.388029099,-0.602271557,-0.521314979,-0.463608891
1421126,9.299838066,-0.782722056,3.053512335,0.351310223,-4.752039909,-0.634516239,0.700213611,-0.336434394,-0.480348438,-0.407158852,9.426413536,0.100538619,-2.714013815,-2.223185301,-18.96312904,0.590828121,0.386451036,-0.603633583,-0.52228272,-0.46206376
1421293,9.250911713,-0.751856446,3.074223995,1.803025246,-5.589485168,-0.499959916,0.699879646,-0.336520225,-0.481054246,-0.406828433,9.44269371,0.114214137,-2.78242588,-2.400232792,-18.55726814,0.51480943,0.384880275,-0.60496819,-0.523218453,-0.460568398
1421459,9.34204483,-0.795663357,2.993936539,1.251507044,-4.746955872,-0.511306345,0.699561357,-0.336630881,-0.481628478,-0.406605005,9.410042763,0.071932912,-2.843724489,-2.307731867,-17.62882614,0.391291976,0.383377343,-0.606221795,-0.524115562,-0.459151179
1421626,9.383275032,-0.780289054,3.027634859,1.035438299,-3.606178522,-0.539685249,0.699325442,-0.336674482,-0.482088596,-0.40642947,9.376840591,0.053286813,-2.88668251,-2.163814306,-16.63465691,0.14041537,0.381943852,-0.607378304,-0.524985611,-0.457821518
1421793,9.31951046,-0.778776765,3.034721851,1.136736393,-3.993659973,-0.250210464,0.699075758,-0.336761981,-0.482572287,-0.406212687,9.306114197,0.033664625,-2.929793596,-1.757237792,-16.21860313,0.0130817,0.380567461,-0.608471572,-0.525867879,-0.456501842
1421959,9.328158379,-0.754238009,2.99073267,0.093415923,-4.295659542,-0.502252281,0.698759913,-0.336928129,-0.483055979,-0.406043231,9.368491173,0.085354589,-2.938872099,-1.278689504,-16.12023926,-0.335270554,0.379215658,-0.609501958,-0.526804149,-0.455170602
1422126,9.366045952,-0.738892198,2.947170734,0.275663108,-3.757203817,-0.443176568,0.698451936,-0.337102264,-0.483455509,-0.405953199,9.406230927,0.086158231,-3.019283533,-1.185446143,-15.11649799,-0.588336885,0.377930492,-0.610438287,-0.527710915,-0.453932643
1422293,9.365408897,-0.759403527,2.929991007,0.430517435,-2.662695885,-0.403451204,0.69826591,-0.337153047,-0.483782351,-0.405841351,9.3220644,0.104836121,-3.080303669,-0.894998014,-14.22984886,-0.938552439,0.376714408,-0.611270547,-0.528616667,-0.452768117
1422459,9.359079361,-0.758405447,2.969574213,0.119540863,-2.388115168,-0.421713114,0.698060751,-0.337246209,-0.484044582,-0.405804098,9.289345741,0.107705697,-3.125544071,-0.770981193,-13.8000679,-1.117956758,0.375528961,-0.612051487,-0.529520869,-0.45163995
1422626,9.347023964,-0.756325185,2.930526257,0.550935686,-2.296882868,-0.275912791,0.697899878,-0.337290019,-0.484323025,-0.405712247,9.256660461,0.148043394,-3.212709188,-0.362317473,-13.64698029,-1.367334843,0.374373764,-0.612778544,-0.530463636,-0.450505495
1422793,9.368065834,-0.779606462,2.91673851,0.903763294,-1.273553133,-0.28368625,0.697829366,-0.337235153,-0.484520257,-0.405643791,9.2099123,0.212025359,-3.242726564,-0.697805583,-13.43636703,-1.506706476,0.373194128,-0.613497078,-0.531383336,-0.449421167
1422959,9.371167183,-0.780366838,2.946258783,1.341164231,-0.38652125,-0.147964582,0.697847664,-0.337097079,-0.484643936,-0.40557918,9.3099823,0.190823406,-3.289092779,-1.27603817,-12.61244297,-1.393293142,0.372032404,-0.614199817,-0.532208681,-0.448447108
1423126,9.369681358,-0.766760588,2.94977212,1.576186419,0.647149682,-0.075224511,0.697969198,-0.336860567,-0.484685868,-0.405516386,9.464770317,0.163931862,-3.301874638,-1.504990101,-10.53919506,-1.118545532,0.371027231,-0.614799321,-0.532880664,-0.447659463
1423293,9.367717743,-0.77011323,2.963754416,1.552750707,1.435367823,0.144052222,0.698150039,-0.336605608,-0.484628737,-0.405484915,9.564548492,0.115206577,-3.293832541,-1.466007113,-6.673658371,-0.409969717,0.370370686,-0.61519891,-0.533282459,-0.447175384
1423459,9.320727348,-0.758411169,2.973666191,1.599135399,1.610161781,0.428737402,0.698360562,-0.336357892,-0.484541148,-0.40543282,9.395206451,0.069423348,-3.293644667,-0.908546448,-2.802861929,0.031727731,0.370092988,-0.615350783,-0.533472061,-0.446970254
1423626,9.22947216,-0.760082603,3.053575993,0.482869774,-1.289650559,0.133691877,0.698289335,-0.336380601,-0.484691948,-0.405356377,9.14245224,0.083499037,-3.291579247,-0.060919806,-1.924999237,0.211861834,0.369971067,-0.615413964,-0.53365314,-0.446767837
1423793,9.285505295,-0.724747658,3.007044077,-0.005814083,-4.847177982,-0.045616217,0.697936356,-0.336645335,-0.485186875,-0.40515247,9.049197197,0.136524439,-3.290606022,0.566738605,-2.866816759,-0.004943251,0.369818151,-0.615487933,-0.533944964,-0.446443766
1423959,9.477174759,-0.743634701,2.811292648,-0.509577453,-3.522040844,-0.426195353,0.69761157,-0.336879343,-0.485520005,-0.405118257,9.076477051,0.13814567,-3.276393414,0.868648291,-3.95994091,-0.511447191,0.369574279,-0.615577281,-0.534360409,-0.446025193
1424126,9.472942352,-0.763459325,2.859377623,-0.071088046,-0.665174603,-0.18862471,0.697540998,-0.336894989,-0.48559317,-0.405139059,9.154485703,0.170023292,-3.303364992,1.013590693,-4.300590515,-1.06037879,0.369281054,-0.615638196,-0.534852564,-0.445593894
1424293,9.371361732,-0.731598556,2.870006084,0.473828524,0.300494611,0.083426967,0.697589576,-0.336807221,-0.485594511,-0.40512681,9.269940376,0.202707693,-3.327205181,1.011144757,-3.645071745,-1.090243101,0.369036525,-0.61565429,-0.535311818,-0.445222735
1424459,9.377635002,-0.729126692,2.894202232,0.709747076,0.903327882,0.249038681,0.697723746,-0.336643487,-0.48555997,-0.405073196,9.329571724,0.204056039,-3.331845045,0.891981423,-2.340936661,-0.829620957,0.368899524,-0.615612328,-0.535669804,-0.444963425
1424626,9.378806114,-0.743513584,2.941275597,0.619603217,1.447649002,0.376308173,0.697869241,-0.336504668,-0.485432327,-0.405090988,9.286197662,0.204211026,-3.364321947,0.613661051,-0.677251041,-0.426220924,0.368893296,-0.615509152,-0.53588438,-0.444853008
1424793,9.350551605,-0.731470168,2.927097797,0.570183456,1.341599464,0.416468829,0.698007464,-0.336379409,-0.485310882,-0.405102402,9.310207367,0.23731558,-3.366750002,0.255096108,0.864639938,0.025695944,0.369004339,-0.615360737,-0.535952568,-0.444884241
1424959,9.360486031,-0.70804292,2.992643118,0.359992921,1.630049944,0.303388834,0.698132575,-0.336271763,-0.485138863,-0.405182362,9.222241402,0.222479969,-3.358763933,-0.198703319,2.488945961,0.411435992,0.369226128,-0.615161538,-0.535869718,-0.445075393
1425126,9.33485508,-0.735940337,2.976966858,0.050591484,0.523491502,0.343075693,0.698174357,-0.336253315,-0.485065818,-0.40521276,9.201611519,0.215773925,-3.343704939,-0.463449001,3.220905781,0.662978292,0.369497359,-0.61494875,-0.535707831,-0.445338964
1425293,9.343675613,-0.766863883,2.900479317,-0.290307134,0.547068,0.469820112,0.698245704,-0.336229861,-0.484996289,-0.405192524,9.251081467,0.198892593,-3.352353334,-0.74913317,3.87483716,0.817026079,0.369803816,-0.614721,-0.535478592,-0.445674807
1425459,9.410696983,-0.743174672,2.84999752,0.001888937,1.560024738,0.716073513,0.698388577,-0.336170971,-0.484804362,-0.405224919,9.308157921,0.166458383,-3.353788137,-0.684204996,5.049204826,1.125569463,0.370227247,-0.614437461,-0.535162687,-0.446093708
1425626,9.529518127,-0.780571342,2.905864,-0.156006947,2.826098919,0.21794486,0.698586822,-0.336014003,-0.484502196,-0.405374706,9.324939728,0.173864409,-3.345151901,-0.538891256,6.552248001,1.01968658,0.370773494,-0.614039958,-0.534784317,-0.44664073
1425793,9.374290466,-0.717755556,3.060333252,-0.004008388,3.134783745,-0.009169347,0.698700905,-0.335934579,-0.484101832,-0.405722171,9.310020447,0.189758807,-3.315162897,-0.660205901,8.093530655,0.543546379,0.371397406,-0.613511324,-0.534356833,-0.44735989
1425959,9.326605797,-0.7185812,3.021450281,0.423563659,3.589946508,0.2429941,0.698988199,-0.335667878,-0.48375985,-0.405856103,9.360571861,0.176074803,-3.278467417,-0.745112002,9.611557961,0.580467224,0.372133404,-0.612890482,-0.533837676,-0.448218197
1426126,9.328756332,-0.789390683,3.012489557,0.378664613,4.427559853,0.849746168,0.699370682,-0.335395634,-0.483302623,-0.405967087,9.347125053,0.171494752,-3.238544464,-0.588708103,11.74884987,0.646343172,0.373052686,-0.612125635,-0.533205867,-0.449250102
1426293,9.315800667,-0.783494711,3.012606859,0.299252421,4.513553619,1.211845756,0.699736178,-0.335201919,-0.482779473,-0.406119466,9.362350464,0.181237489,-3.199352741,-0.622581065,13.74054909,0.770334303,0.374130219,-0.611240029,-0.532450914,-0.45045355
1426459,9.27436924,-0.745531082,3.079426527,0.819625735,3.726642132,1.322159767,0.700098813,-0.334983915,-0.482379198,-0.406150281,9.36076355,0.172145501,-3.153406143,-0.499409616,15.34475231,0.834942639,0.375345498,-0.610244989,-0.531608582,-0.451784551
1426626,9.288953781,-0.714491606,3.064471483,0.155859709,2.191518784,1.27343154,0.700321794,-0.334915727,-0.482101351,-0.406151712,9.330176353,0.167103887,-3.117552042,-0.236174926,16.53689766,0.825299561,0.376673698,-0.60915333,-0.530716538,-0.453199059
1426793,9.328654289,-0.75037539,3.028617144,-0.268293023,2.732125759,1.036078453,0.700640082,-0.334726155,-0.481834412,-0.406076074,9.360752106,0.153746381,-3.075576067,-0.053236049,17.25729561,0.793757558,0.378069252,-0.607998192,-0.52979666,-0.454662025
1426959,9.353113174,-0.776707292,3.023699522,-0.285427958,3.869868279,1.176974177,0.70087707,-0.334693015,-0.481298029,-0.406330138,9.411060333,0.139452681,-3.060758352,0.327362716,18.27307701,0.899051726,0.379581094,-0.606759012,-0.52883321,-0.456176519
1427126,9.334432602,-0.789323092,3.069487333,-0.586069822,4.74034071,1.400752187,0.701272249,-0.334529728,-0.480729848,-0.406455398,9.485167503,0.154996514,-2.995508671,0.795781136,19.33551788,0.866408229,0.381211162,-0.605416715,-0.52784121,-0.457747072
1427293,9.338806152,-0.787067056,3.062252522,-0.192876473,5.761507034,1.32624507,0.701753914,-0.334260881,-0.480084002,-0.406608701,9.56510067,0.146044359,-2.94766593,1.003103733,21.15612793,0.916225255,0.382999212,-0.603940368,-0.526753008,-0.459455162
1427459,9.332416534,-0.779249489,3.108337641,0.337658674,6.593971252,1.349527001,0.702305257,-0.333907515,-0.479371041,-0.406788051,9.570396423,0.16819261,-2.88845396,1.269413114,24.60965157,0.735643208,0.38505891,-0.602197945,-0.525500178,-0.461450994
1427626,9.311124802,-0.759176552,3.122647285,0.424575388,6.787142277,1.241479874,0.702863157,-0.333531857,-0.478644282,-0.406988531,9.491895676,0.161706567,-2.841570854,1.027949333,28.13142204,0.343780994,0.387334615,-0.600193918,-0.524060369,-0.463788807
1427793,9.249680519,-0.7575019,3.133070946,-0.101298228,5.589876175,1.523373127,0.703355491,-0.333265722,-0.478018165,-0.407091856,9.386444092,0.078712404,-2.769955873,1.533904433,29.6027565,0.250076771,0.389753342,-0.598044455,-0.522570789,-0.466213375
1427959,9.256453514,-0.79659301,3.098735571,-0.060996637,3.718982935,1.788810015,0.703736663,-0.333122194,-0.477574229,-0.40707165,9.406786919,0.0806593,-2.671118259,2.308255672,30.07172203,0.46340555,0.392282248,-0.595824599,-0.521078706,-0.468598783
1428126,9.343637466,-0.836807489,3.111260891,0.136227548,3.468696117,1.719515085,0.704027474,-0.333066195,-0.477103859,-0.407166183,9.4116745,0.156541973,-2.554844141,2.857714176,30.1079483,0.143373936,0.394832045,-0.593535483,-0.519639611,-0.470954537
1428293,9.361937523,-0.728828549,3.040724754,-0.294123411,3.14278698,0.77692914,0.704251945,-0.332966208,-0.476715654,-0.407314181,9.508512497,0.192082167,-2.458200932,2.646677256,29.92423439,-0.4469814,0.397301584,-0.591215074,-0.518237472,-0.473335028
1428460,9.351920128,-0.751979768,3.057178974,0.541785419,6.12429142,0.844834864,0.704877853,-0.332424819,-0.476195097,-0.407282859,9.603764534,0.168957785,-2.371067762,2.575871229,30.44123077,-0.661847115,0.399781495,-0.588835597,-0.516809165,-0.475768596
