// Start Time: Unknown
// Update Rate: 60.0Hz
//Filter Profile: human (46.1)
// Option Flags: AHS Disabled ICC Disabled
// Firmware Version: 4.0.2
0	sampleTimeFine	Year	Month	Day	Second	UTC_Nano	UTC_Year	UTC_Month	UTC_Day	UTC_Hour	UTC_Minute	UTC_Second	UTC_Valid	Acc_X	Acc_Y	Acc_Z	Mat[1][1]	Mat[2][1]	Mat[3][1]	Mat[1][2]	Mat[2][2]	Mat[3][2]	Mat[1][3]	Mat[2][3]	Mat[3][3]
0	223871													0.000000	0.000000	0.000000	0.207176	-0.897503	-0.389315	0.024475	-0.393070	0.919183	-0.977997	-0.199961	-0.059469
1	224038													9.620943	0.225670	2.033326	0.207357	-0.896873	-0.390669	0.024297	-0.394504	0.918573	-0.977964	-0.199964	-0.060011
2	224205													9.615610	0.252685	2.014397	0.207208	-0.896957	-0.390554	0.024038	-0.394430	0.918612	-0.978002	-0.199732	-0.060168
3	224371													9.621847	0.265372	2.009206	0.206806	-0.896846	-0.391022	0.024214	-0.394848	0.918427	-0.978082	-0.199405	-0.059941
4	224538													9.621468	0.292602	1.987100	0.206380	-0.896614	-0.391778	0.024584	-0.395520	0.918128	-0.978163	-0.199115	-0.059585
5	224705													9.611507	0.281392	2.009328	0.205880	-0.896469	-0.392374	0.025103	-0.395994	0.917910	-0.978255	-0.198829	-0.059023
6	224871													9.623641	0.300905	1.983245	0.205558	-0.896276	-0.392982	0.025534	-0.396508	0.917676	-0.978312	-0.198670	-0.058619
7	225038													9.607450	0.304209	2.014927	0.205234	-0.896049	-0.393669	0.025954	-0.397107	0.917405	-0.978369	-0.198500	-0.058244
8	225205													9.613891	0.277069	1.982212	0.204989	-0.896114	-0.393648	0.026211	-0.397019	0.917436	-0.978413	-0.198382	-0.057897
9	225371													9.618635	0.256221	2.016776	0.204807	-0.895930	-0.394161	0.026340	-0.397507	0.917221	-0.978448	-0.198235	-0.057813
10	225538													9.611950	0.249124	2.010720	0.204690	-0.895763	-0.394601	0.026326	-0.397953	0.917028	-0.978473	-0.198095	-0.057875
11	225705													9.610019	0.224278	2.018814	0.204590	-0.895717	-0.394757	0.026224	-0.398127	0.916955	-0.978496	-0.197952	-0.057963
12	225871													9.616717	0.263454	2.024690	0.204602	-0.895568	-0.395089	0.026004	-0.398512	0.916794	-0.978500	-0.197852	-0.058248
13	226038													9.620934	0.216890	1.983100	0.204634	-0.895399	-0.395457	0.025737	-0.398944	0.916614	-0.978500	-0.197748	-0.058593
14	226205													9.642804	0.168162	1.954103	0.204718	-0.895261	-0.395725	0.025451	-0.399282	0.916475	-0.978490	-0.197690	-0.058955
15	226371													9.620557	0.302981	1.992679	0.205036	-0.894977	-0.396202	0.025266	-0.399828	0.916242	-0.978428	-0.197873	-0.059367
16	226538													9.645534	0.341427	2.045436	0.205623	-0.894753	-0.396404	0.025257	-0.400073	0.916135	-0.978305	-0.198390	-0.059665
17	226705													9.655412	0.282019	2.084635	0.206074	-0.894573	-0.396576	0.024940	-0.400341	0.916027	-0.978218	-0.198660	-0.060190
18	226871													9.606737	0.213196	2.089182	0.206424	-0.894579	-0.396381	0.024814	-0.400189	0.916096	-0.978148	-0.198940	-0.060410
19	227038													9.599510	0.222613	2.057595	0.206770	-0.894491	-0.396400	0.024889	-0.400215	0.916083	-0.978073	-0.199284	-0.060490
20	227205													9.615808	0.263236	2.056015	0.206976	-0.894323	-0.396669	0.024785	-0.400526	0.915950	-0.978032	-0.199412	-0.060733
21	227371													9.590841	0.257295	2.045907	0.207196	-0.894167	-0.396908	0.024627	-0.400816	0.915828	-0.977989	-0.199531	-0.061027
22	227538													9.578996	0.230978	2.039805	0.207384	-0.894066	-0.397035	0.024477	-0.400990	0.915756	-0.977953	-0.199631	-0.061275
23	227705													9.587231	0.228920	2.047349	0.207534	-0.893941	-0.397240	0.024356	-0.401233	0.915652	-0.977925	-0.199704	-0.061497
24	227871													9.587911	0.235331	2.040000	0.207666	-0.893835	-0.397410	0.024148	-0.401458	0.915559	-0.977902	-0.199727	-0.061784
25	228038													9.590208	0.238864	2.041381	0.207826	-0.893712	-0.397601	0.023951	-0.401705	0.915456	-0.977873	-0.199778	-0.062079
26	228205													9.605292	0.257543	2.045802	0.207991	-0.893649	-0.397658	0.023799	-0.401805	0.915416	-0.977841	-0.199862	-0.062304
27	228371													9.624485	0.275858	2.077330	0.208109	-0.893553	-0.397811	0.023593	-0.402011	0.915331	-0.977821	-0.199875	-0.062580
28	228538													9.610315	0.247921	2.100024	0.208163	-0.893437	-0.398043	0.023365	-0.402299	0.915210	-0.977815	-0.199813	-0.062869
29	228705													9.580849	0.274272	2.067556	0.208164	-0.893360	-0.398215	0.023233	-0.402503	0.915124	-0.977818	-0.199748	-0.063031
30	228871													9.590063	0.227493	2.041968	0.208108	-0.893288	-0.398406	0.023010	-0.402740	0.915025	-0.977835	-0.199591	-0.063259
31	229038													9.588146	0.263990	2.066066	0.208085	-0.893266	-0.398467	0.022830	-0.402838	0.914986	-0.977844	-0.199492	-0.063431
32	229205													9.578711	0.277353	2.053923	0.208131	-0.893290	-0.398390	0.022785	-0.402771	0.915017	-0.977836	-0.199521	-0.063475
33	229371													9.616854	0.286490	2.012811	0.208161	-0.893379	-0.398174	0.022666	-0.402576	0.915106	-0.977832	-0.199514	-0.063551
34	229538													9.619943	0.252026	2.117140	0.208251	-0.893379	-0.398128	0.022489	-0.402571	0.915113	-0.977817	-0.199526	-0.063745
35	229705													9.611743	0.232024	2.131355	0.208353	-0.893373	-0.398088	0.022345	-0.402567	0.915118	-0.977798	-0.199563	-0.063914
36	229871													9.591141	0.205829	2.110527	0.208381	-0.893386	-0.398043	0.022280	-0.402536	0.915133	-0.977794	-0.199565	-0.063977
37	230038													9.597903	0.216226	2.094169	0.208379	-0.893264	-0.398319	0.022335	-0.402807	0.915012	-0.977793	-0.199566	-0.063986
38	230205													9.606586	0.244773	2.097680	0.208280	-0.893161	-0.398601	0.022377	-0.403080	0.914891	-0.977813	-0.199473	-0.063967
39	230371													9.584119	0.250782	2.100830	0.208143	-0.893039	-0.398947	0.022355	-0.403430	0.914737	-0.977843	-0.199314	-0.064007
40	230538													9.591899	0.253313	2.077323	0.208038	-0.892980	-0.399132	0.022303	-0.403623	0.914653	-0.977867	-0.199184	-0.064053
41	230705													9.595025	0.227244	2.089921	0.207957	-0.892843	-0.399482	0.022223	-0.403993	0.914492	-0.977886	-0.199052	-0.064171
42	230871													9.580121	0.267308	2.076154	0.207837	-0.892773	-0.399699	0.022140	-0.404224	0.914392	-0.977913	-0.198894	-0.064247
43	231038													9.603478	0.266908	2.073521	0.207683	-0.892793	-0.399735	0.021939	-0.404291	0.914367	-0.977950	-0.198668	-0.064377
44	231205													9.627811	0.237348	2.078310	0.207485	-0.892952	-0.399483	0.021682	-0.404072	0.914470	-0.977998	-0.198400	-0.064478
45	231371													9.603659	0.203945	2.062371	0.207287	-0.892993	-0.399494	0.021365	-0.404134	0.914450	-0.978047	-0.198088	-0.064693
46	231538													9.584610	0.229554	2.063736	0.207105	-0.893037	-0.399491	0.021132	-0.404165	0.914442	-0.978090	-0.197827	-0.064833
47	231705													9.598164	0.249273	2.076857	0.206981	-0.893019	-0.399595	0.020969	-0.404297	0.914388	-0.978120	-0.197640	-0.064956
48	231871													9.610697	0.251423	2.085723	0.206842	-0.893013	-0.399680	0.020764	-0.404415	0.914340	-0.978154	-0.197423	-0.065107
49	232038													9.610853	0.236082	2.077387	0.206664	-0.892990	-0.399823	0.020556	-0.404592	0.914266	-0.978196	-0.197164	-0.065258
50	232205													9.592890	0.220588	2.078226	0.206444	-0.893054	-0.399794	0.020383	-0.404582	0.914275	-0.978246	-0.196896	-0.065320
51	232371													9.612133	0.236651	2.072617	0.206254	-0.893064	-0.399869	0.020227	-0.404677	0.914236	-0.978289	-0.196653	-0.065403
52	232538													9.613499	0.204374	2.047611	0.206035	-0.893129	-0.399837	0.019982	-0.404679	0.914240	-0.978341	-0.196355	-0.065532
53	232705													9.623498	0.136270	1.983315	0.205766	-0.893022	-0.400215	0.019726	-0.405099	0.914060	-0.978402	-0.195977	-0.065739
54	232871													9.632342	0.232928	2.032162	0.205738	-0.893015	-0.400244	0.019584	-0.405155	0.914038	-0.978411	-0.195890	-0.065867
55	233038													9.633513	0.307858	2.063999	0.205928	-0.893014	-0.400149	0.019731	-0.405040	0.914086	-0.978368	-0.196131	-0.065789
56	233205													9.643507	0.281353	2.095710	0.205880	-0.893147	-0.399876	0.019503	-0.404804	0.914195	-0.978383	-0.196014	-0.065922
57	233371													9.614567	0.201217	2.114958	0.205754	-0.893187	-0.399854	0.019352	-0.404803	0.914199	-0.978412	-0.195838	-0.066005
58	233538													9.577944	0.179207	2.065481	0.205615	-0.893180	-0.399939	0.019457	-0.404859	0.914172	-0.978440	-0.195749	-0.065867
59	233705													9.623674	0.245630	2.066799	0.205397	-0.893310	-0.399762	0.019432	-0.404668	0.914257	-0.978486	-0.195554	-0.065759
60	233871													9.619463	0.222728	2.064358	0.205176	-0.893320	-0.399852	0.019327	-0.404766	0.914216	-0.978534	-0.195303	-0.065783
61	234038													9.593179	0.213071	2.026469	0.205010	-0.893402	-0.399753	0.019234	-0.404672	0.914259	-0.978571	-0.195121	-0.065778
62	234205													9.571787	0.225866	2.037111	0.204892	-0.893358	-0.399912	0.019225	-0.404828	0.914191	-0.978596	-0.194999	-0.065771
63	234371													9.581915	0.197411	2.029773	0.204776	-0.893372	-0.399942	0.019179	-0.404860	0.914177	-0.978621	-0.194872	-0.065771
64	234538													9.601409	0.207652	2.048087	0.204692	-0.893408	-0.399904	0.019138	-0.404824	0.914194	-0.978639	-0.194781	-0.065766
65	234705													9.624743	0.221167	2.052822	0.204573	-0.893517	-0.399720	0.019124	-0.404630	0.914280	-0.978664	-0.194682	-0.065689
66	234871													9.633609	0.225451	2.036425	0.204474	-0.893539	-0.399722	0.019110	-0.404628	0.914282	-0.978686	-0.194585	-0.065660
67	235038													9.626604	0.230085	2.093896	0.204304	-0.893522	-0.399847	0.019104	-0.404745	0.914230	-0.978721	-0.194420	-0.065621
68	235205													9.618153	0.244301	2.085079	0.204075	-0.893521	-0.399966	0.019186	-0.404836	0.914188	-0.978767	-0.194237	-0.065474
69	235371													9.606344	0.228529	1.994254	0.203709	-0.893519	-0.400157	0.019178	-0.405007	0.914112	-0.978844	-0.193887	-0.065368
70	235538													9.597980	0.248730	2.032490	0.203457	-0.893575	-0.400162	0.019074	-0.405016	0.914111	-0.978898	-0.193615	-0.065359
71	235705													9.609509	0.268899	2.032427	0.203382	-0.893656	-0.400019	0.019126	-0.404854	0.914181	-0.978913	-0.193579	-0.065248
72	235871													9.599009	0.282806	2.033560	0.203269	-0.893793	-0.399770	0.019151	-0.404587	0.914299	-0.978936	-0.193505	-0.065123
73	236038													9.620670	0.248017	2.022946	0.203138	-0.894016	-0.399337	0.019198	-0.404126	0.914502	-0.978962	-0.193437	-0.064930
74	236205													9.645494	0.239720	2.087933	0.203037	-0.894176	-0.399031	0.019197	-0.403806	0.914643	-0.978983	-0.193367	-0.064822
75	236371													9.616096	0.225909	2.068174	0.202995	-0.894396	-0.398558	0.019195	-0.403319	0.914858	-0.978992	-0.193362	-0.064703
76	236538													9.607610	0.227965	2.053322	0.202920	-0.894457	-0.398461	0.019248	-0.403204	0.914908	-0.979006	-0.193323	-0.064601
77	236705													9.605311	0.246524	2.044994	0.202735	-0.894524	-0.398403	0.019350	-0.403113	0.914946	-0.979042	-0.193200	-0.064416
78	236871													9.602984	0.253992	2.047649	0.202535	-0.894621	-0.398287	0.019506	-0.402950	0.915014	-0.979081	-0.193091	-0.064161
79	237038													9.592746	0.255865	2.012957	0.202380	-0.894711	-0.398164	0.019622	-0.402791	0.915082	-0.979111	-0.193007	-0.063961
80	237205													9.601520	0.247516	2.020765	0.202280	-0.894759	-0.398108	0.019671	-0.402717	0.915113	-0.979130	-0.192941	-0.063861
81	237371													9.609884	0.256385	2.013015	0.202263	-0.894766	-0.398100	0.019760	-0.402690	0.915123	-0.979132	-0.192962	-0.063768
82	237538													9.616121	0.265387	2.017428	0.202249	-0.894770	-0.398099	0.019764	-0.402688	0.915124	-0.979135	-0.192950	-0.063759
83	237705													9.605364	0.249684	2.053862	0.202158	-0.894842	-0.397983	0.019722	-0.402571	0.915176	-0.979154	-0.192859	-0.063735
84	237871													9.628703	0.228556	2.048141	0.202015	-0.894947	-0.397819	0.019679	-0.402403	0.915251	-0.979185	-0.192723	-0.063680
85	238038													9.609474	0.227616	2.035477	0.201859	-0.894982	-0.397820	0.019637	-0.402401	0.915253	-0.979218	-0.192564	-0.063654
86	238205													9.621932	0.238315	2.024201	0.201770	-0.895110	-0.397576	0.019652	-0.402143	0.915366	-0.979236	-0.192507	-0.063550
87	238371													9.610317	0.268648	2.033617	0.201701	-0.895097	-0.397640	0.019637	-0.402207	0.915338	-0.979250	-0.192433	-0.063548
88	238538													9.601734	0.272393	2.031658	0.201675	-0.895073	-0.397708	0.019646	-0.402273	0.915309	-0.979255	-0.192408	-0.063544
89	238705													9.616893	0.293047	2.034575	0.201632	-0.895046	-0.397790	0.019634	-0.402356	0.915273	-0.979264	-0.192359	-0.063555
90	238871													9.614207	0.289315	2.053633	0.201572	-0.895117	-0.397660	0.019600	-0.402226	0.915331	-0.979278	-0.192299	-0.063533
91	239038													9.606962	0.250410	2.052840	0.201504	-0.895157	-0.397606	0.019546	-0.402177	0.915353	-0.979293	-0.192219	-0.063543
92	239205													9.591498	0.260437	2.041574	0.201401	-0.895220	-0.397515	0.019470	-0.402092	0.915392	-0.979315	-0.192100	-0.063552
93	239371													9.623742	0.257780	2.051695	0.201322	-0.895309	-0.397354	0.019351	-0.401946	0.915459	-0.979334	-0.191992	-0.063595
94	239538													9.587788	0.198155	1.983147	0.201127	-0.895430	-0.397181	0.019186	-0.401788	0.915532	-0.979377	-0.191759	-0.063631
95	239705													9.624052	0.202891	1.956866	0.201079	-0.895441	-0.397180	0.019028	-0.401815	0.915523	-0.979390	-0.191650	-0.063758
96	239872													9.617548	0.327746	2.029942	0.201328	-0.895383	-0.397186	0.019189	-0.401805	0.915524	-0.979336	-0.191942	-0.063713
97	240038													9.636087	0.324614	2.081271	0.201602	-0.895369	-0.397079	0.019253	-0.401702	0.915568	-0.979278	-0.192225	-0.063745
98	240205													9.640555	0.290018	2.103344	0.201618	-0.895460	-0.396864	0.019037	-0.401525	0.915650	-0.979279	-0.192167	-0.063908
99	240372													9.580691	0.200732	2.068403	0.201671	-0.895534	-0.396670	0.019091	-0.401321	0.915739	-0.979267	-0.192251	-0.063838
100	240538													9.613132	0.248096	2.088845	0.201701	-0.895542	-0.396638	0.019237	-0.401261	0.915762	-0.979258	-0.192340	-0.063707
101	240705													9.604709	0.274155	2.047404	0.201638	-0.895570	-0.396606	0.019208	-0.401229	0.915776	-0.979272	-0.192273	-0.063701
102	240872													9.582937	0.228802	2.038172	0.201574	-0.895696	-0.396353	0.019113	-0.400985	0.915885	-0.979287	-0.192194	-0.063709
103	241038													9.585301	0.227341	2.009346	0.201589	-0.895726	-0.396279	0.019038	-0.400925	0.915913	-0.979285	-0.192182	-0.063769
104	241205													9.580842	0.226642	1.995871	0.201695	-0.895746	-0.396180	0.019017	-0.400835	0.915953	-0.979264	-0.192278	-0.063812
105	241372													9.597267	0.235357	2.003838	0.201794	-0.895755	-0.396109	0.018993	-0.400774	0.915980	-0.979244	-0.192363	-0.063861
106	241538													9.616308	0.251739	2.026695	0.201920	-0.895720	-0.396124	0.018995	-0.400798	0.915970	-0.979218	-0.192477	-0.063914
107	241705													9.638555	0.276229	2.041664	0.202021	-0.895633	-0.396268	0.018952	-0.400960	0.915900	-0.979198	-0.192541	-0.064028
108	241872													9.631750	0.265102	2.051446	0.202085	-0.895656	-0.396186	0.018938	-0.400883	0.915934	-0.979185	-0.192599	-0.064050
109	242038													9.627676	0.278407	2.071199	0.202127	-0.895661	-0.396153	0.018949	-0.400849	0.915948	-0.979176	-0.192644	-0.064050
110	242205													9.598146	0.266727	2.028436	0.202070	-0.895653	-0.396199	0.018958	-0.400891	0.915930	-0.979188	-0.192593	-0.064028
111	242372													9.603926	0.261028	2.019262	0.201946	-0.895753	-0.396035	0.018865	-0.400734	0.916000	-0.979215	-0.192454	-0.064028
112	242538													9.601791	0.289512	2.015507	0.201981	-0.895921	-0.395638	0.018864	-0.400330	0.916177	-0.979208	-0.192514	-0.063958
113	242705													9.596928	0.294132	2.024223	0.202038	-0.895961	-0.395519	0.018871	-0.400211	0.916229	-0.979196	-0.192577	-0.063950
114	242872													9.608903	0.270021	2.035066	0.202040	-0.896034	-0.395352	0.018843	-0.400046	0.916301	-0.979196	-0.192579	-0.063942
115	243038													9.613314	0.243879	2.072197	0.202087	-0.896064	-0.395259	0.018754	-0.399972	0.916336	-0.979188	-0.192593	-0.064024
116	243205													9.619915	0.236749	2.093801	0.202175	-0.896117	-0.395093	0.018714	-0.399816	0.916405	-0.979171	-0.192668	-0.064063
117	243372													9.605403	0.231931	2.112455	0.202305	-0.896127	-0.395006	0.018717	-0.399734	0.916440	-0.979144	-0.192794	-0.064096
118	243538													9.590229	0.255370	2.062860	0.202359	-0.896123	-0.394987	0.018765	-0.399709	0.916450	-0.979132	-0.192864	-0.064069
119	243705													9.583186	0.283856	2.051582	0.202386	-0.896071	-0.395090	0.018835	-0.399803	0.916408	-0.979125	-0.192909	-0.064037
120	243872													9.594910	0.281103	2.044426	0.202400	-0.896046	-0.395139	0.018835	-0.399854	0.916385	-0.979122	-0.192919	-0.064054
121	244038													9.594431	0.272704	2.037834	0.202430	-0.896033	-0.395155	0.018846	-0.399870	0.916378	-0.979115	-0.192950	-0.064059
122	244205													9.589170	0.284898	2.034730	0.202415	-0.896062	-0.395097	0.018841	-0.399810	0.916404	-0.979119	-0.192938	-0.064045
123	244372													9.614707	0.272110	2.030589	0.202383	-0.896167	-0.394873	0.018806	-0.399587	0.916503	-0.979126	-0.192911	-0.064017
124	244538													9.607532	0.270587	2.025203	0.202319	-0.896207	-0.394818	0.018699	-0.399547	0.916522	-0.979141	-0.192812	-0.064078
125	244705													9.604724	0.264811	2.046249	0.202253	-0.896319	-0.394596	0.018591	-0.399336	0.916616	-0.979157	-0.192724	-0.064103
126	244872													9.613616	0.262832	2.063216	0.202175	-0.896316	-0.394642	0.018463	-0.399404	0.916589	-0.979175	-0.192597	-0.064201
127	245038													9.603153	0.245131	2.050451	0.202111	-0.896379	-0.394532	0.018360	-0.399307	0.916634	-0.979191	-0.192505	-0.064247
128	245205													9.593054	0.264925	2.056645	0.202051	-0.896420	-0.394469	0.018324	-0.399246	0.916661	-0.979203	-0.192441	-0.064242
129	245372													9.598419	0.268201	2.038635	0.201987	-0.896494	-0.394334	0.018287	-0.399110	0.916721	-0.979218	-0.192377	-0.064220
130	245538													9.582919	0.285310	2.073835	0.201930	-0.896555	-0.394225	0.018255	-0.399002	0.916768	-0.979230	-0.192319	-0.064203
131	245705													9.572792	0.273609	2.075867	0.201866	-0.896627	-0.394094	0.018287	-0.398857	0.916831	-0.979242	-0.192284	-0.064119
132	245872													9.596200	0.290606	2.032917	0.201758	-0.896667	-0.394059	0.018282	-0.398815	0.916849	-0.979265	-0.192186	-0.064071
133	246038													9.629704	0.278170	2.054885	0.201607	-0.896726	-0.394000	0.018257	-0.398750	0.916878	-0.979296	-0.192042	-0.064019
134	246205													9.597741	0.258135	2.044779	0.201426	-0.896862	-0.393784	0.018211	-0.398525	0.916977	-0.979334	-0.191874	-0.063941
135	246372													9.580071	0.243361	2.018205	0.201248	-0.897035	-0.393480	0.018209	-0.398204	0.917116	-0.979371	-0.191733	-0.063803
136	246538													9.605947	0.272393	2.041736	0.201137	-0.897152	-0.393271	0.018232	-0.397978	0.917214	-0.979393	-0.191655	-0.063691
137	246705													9.606842	0.220840	1.994826	0.200944	-0.897295	-0.393044	0.018188	-0.397741	0.917317	-0.979434	-0.191478	-0.063604
138	246872													9.605043	0.199076	1.969740	0.200724	-0.897343	-0.393047	0.018093	-0.397748	0.917316	-0.979481	-0.191239	-0.063602
139	247038													9.620005	0.301578	2.005870	0.200746	-0.897355	-0.393007	0.018153	-0.397697	0.917337	-0.979475	-0.191286	-0.063546
140	247205													9.654511	0.315103	2.075466	0.200943	-0.897398	-0.392809	0.018300	-0.397479	0.917429	-0.979432	-0.191539	-0.063448
141	247372													9.644752	0.299403	2.123848	0.200915	-0.897491	-0.392611	0.018124	-0.397309	0.917506	-0.979441	-0.191456	-0.063559
142	247538													9.563551	0.201087	2.088351	0.200847	-0.897563	-0.392480	0.018173	-0.397161	0.917569	-0.979454	-0.191424	-0.063457
143	247705													9.585380	0.243450	2.072047	0.200760	-0.897647	-0.392334	0.018401	-0.396962	0.917651	-0.979468	-0.191447	-0.063176
144	247872													9.604117	0.269220	2.064145	0.200614	-0.897696	-0.392296	0.018474	-0.396899	0.917677	-0.979496	-0.191346	-0.063040
145	248038													9.597296	0.264235	2.036500	0.200492	-0.897724	-0.392295	0.018499	-0.396885	0.917682	-0.979521	-0.191245	-0.062966
146	248205													9.596870	0.235490	2.022134	0.200392	-0.897737	-0.392316	0.018478	-0.396904	0.917674	-0.979542	-0.191144	-0.062948
147	248372													9.580377	0.233122	2.001153	0.200328	-0.897792	-0.392223	0.018454	-0.396809	0.917716	-0.979555	-0.191082	-0.062924
148	248538													9.589593	0.225351	1.995034	0.200300	-0.897748	-0.392338	0.018481	-0.396920	0.917667	-0.979560	-0.191059	-0.062912
149	248705													9.599170	0.260262	2.011359	0.200245	-0.897814	-0.392215	0.018544	-0.396778	0.917727	-0.979570	-0.191044	-0.062804
150	248872													9.610068	0.289882	2.015041	0.200097	-0.897959	-0.391957	0.018596	-0.396495	0.917848	-0.979600	-0.190948	-0.062639
151	249038													9.634313	0.291172	2.039323	0.199924	-0.898016	-0.391916	0.018686	-0.396424	0.917877	-0.979633	-0.190829	-0.062475
152	249205													9.619514	0.272389	2.045434	0.199724	-0.898101	-0.391822	0.018762	-0.396300	0.917929	-0.979672	-0.190684	-0.062301
153	249372													9.612697	0.276292	2.032915	0.199439	-0.898232	-0.391667	0.018836	-0.396109	0.918010	-0.979729	-0.190465	-0.062081
154	249538													9.595527	0.245550	1.974002	0.199095	-0.898340	-0.391594	0.018852	-0.396009	0.918053	-0.979799	-0.190163	-0.061908
155	249705													9.600738	0.298925	1.983282	0.198855	-0.898404	-0.391569	0.019016	-0.395936	0.918081	-0.979844	-0.190011	-0.061649
156	249872													9.601046	0.317470	2.006633	0.198705	-0.898534	-0.391348	0.019071	-0.395690	0.918186	-0.979874	-0.189912	-0.061490
157	250038													9.594715	0.284527	2.006582	0.198546	-0.898750	-0.390933	0.019098	-0.395250	0.918375	-0.979905	-0.189806	-0.061311
158	250205													9.631803	0.282710	2.049019	0.198418	-0.898904	-0.390644	0.019094	-0.394947	0.918505	-0.979932	-0.189707	-0.061201
159	250372													9.618596	0.267581	2.045243	0.198313	-0.899036	-0.390393	0.019077	-0.394687	0.918617	-0.979953	-0.189621	-0.061121
160	250538													9.616465	0.250842	2.036271	0.198200	-0.899167	-0.390148	0.019154	-0.394415	0.918733	-0.979974	-0.189566	-0.060951
161	250705													9.585932	0.283732	2.021729	0.198054	-0.899273	-0.389978	0.019279	-0.394208	0.918819	-0.980002	-0.189494	-0.060737
162	250872													9.589151	0.296049	1.995294	0.197899	-0.899322	-0.389943	0.019432	-0.394133	0.918848	-0.980030	-0.189417	-0.060523
163	251038													9.615878	0.306612	2.005418	0.197714	-0.899381	-0.389902	0.019523	-0.394062	0.918876	-0.980065	-0.189286	-0.060353
164	251205													9.602104	0.302579	1.994447	0.197586	-0.899494	-0.389706	0.019583	-0.393842	0.918969	-0.980090	-0.189207	-0.060203
165	251372													9.620397	0.293871	1.999529	0.197513	-0.899581	-0.389541	0.019612	-0.393663	0.919045	-0.980104	-0.189163	-0.060111
166	251538													9.618466	0.273938	1.994971	0.197370	-0.899690	-0.389363	0.019594	-0.393476	0.919126	-0.980133	-0.189037	-0.060032
167	251705													9.609334	0.278578	1.982679	0.197185	-0.899823	-0.389149	0.019533	-0.393258	0.919221	-0.980172	-0.188858	-0.059968
168	251872													9.621834	0.268112	2.014359	0.196975	-0.899995	-0.388857	0.019484	-0.392955	0.919351	-0.980215	-0.188665	-0.059867
169	252038													9.619934	0.273283	2.004170	0.196777	-0.900140	-0.388623	0.019364	-0.392727	0.919451	-0.980257	-0.188452	-0.059849
170	252205													9.607874	0.264715	2.004020	0.196589	-0.900247	-0.388469	0.019328	-0.392565	0.919521	-0.980295	-0.188276	-0.059774
171	252372													9.604658	0.284877	2.038772	0.196449	-0.900325	-0.388359	0.019317	-0.392446	0.919572	-0.980324	-0.188151	-0.059704
172	252538													9.619569	0.261841	1.985661	0.196304	-0.900416	-0.388222	0.019268	-0.392307	0.919633	-0.980354	-0.188007	-0.059663
173	252705													9.627308	0.282609	2.005535	0.196196	-0.900505	-0.388070	0.019194	-0.392159	0.919697	-0.980377	-0.187889	-0.059656
174	252872													9.618040	0.283355	2.002309	0.196064	-0.900560	-0.388009	0.019175	-0.392093	0.919726	-0.980404	-0.187765	-0.059607
175	253038													9.602123	0.274652	1.986535	0.195875	-0.900596	-0.388021	0.019107	-0.392105	0.919722	-0.980443	-0.187564	-0.059596
176	253205													9.632881	0.284499	1.986870	0.195747	-0.900681	-0.387888	0.019078	-0.391968	0.919781	-0.980469	-0.187445	-0.059544
177	253372													9.599150	0.235268	1.958646	0.195513	-0.900797	-0.387736	0.018933	-0.391825	0.919845	-0.980518	-0.187183	-0.059552
178	253538													9.560808	0.226423	1.907432	0.195294	-0.900880	-0.387653	0.018805	-0.391752	0.919879	-0.980564	-0.186937	-0.059566
179	253705													9.675961	0.318683	2.011767	0.195402	-0.900889	-0.387579	0.018826	-0.391679	0.919909	-0.980543	-0.187048	-0.059575
180	253872													9.676898	0.313369	2.047647	0.195623	-0.900949	-0.387328	0.018799	-0.391441	0.920011	-0.980499	-0.187257	-0.059638
181	254038													9.634665	0.272441	2.029314	0.195637	-0.901060	-0.387063	0.018621	-0.391206	0.920115	-0.980500	-0.187216	-0.059756
182	254205													9.587233	0.205846	2.007640	0.195590	-0.901113	-0.386962	0.018688	-0.391087	0.920164	-0.980508	-0.187207	-0.059653
183	254372													9.575553	0.233584	1.999658	0.195566	-0.901121	-0.386957	0.018808	-0.391057	0.920174	-0.980510	-0.187233	-0.059529
184	254538													9.586827	0.264255	1.982949	0.195494	-0.901140	-0.386949	0.018836	-0.391039	0.920181	-0.980524	-0.187178	-0.059472
185	254705													9.582720	0.258210	1.991529	0.195448	-0.901130	-0.386995	0.018802	-0.391089	0.920161	-0.980534	-0.187120	-0.059494
186	254872													9.623108	0.255847	1.971741	0.195423	-0.901147	-0.386968	0.018747	-0.391071	0.920170	-0.980540	-0.187077	-0.059530
187	255038													9.609424	0.246998	1.969668	0.195528	-0.901126	-0.386963	0.018748	-0.391072	0.920169	-0.980519	-0.187174	-0.059571
188	255205													9.619849	0.275979	1.974671	0.195647	-0.901049	-0.387082	0.018790	-0.391193	0.920117	-0.980494	-0.187291	-0.059605
189	255372													9.638642	0.285180	2.005388	0.195703	-0.900965	-0.387249	0.018769	-0.391372	0.920041	-0.980484	-0.187323	-0.059682
190	255538													9.630979	0.276637	1.965708	0.195685	-0.900913	-0.387381	0.018756	-0.391507	0.919984	-0.980487	-0.187292	-0.059715
191	255705													9.626060	0.272471	1.965102	0.195669	-0.900830	-0.387582	0.018791	-0.391705	0.919899	-0.980490	-0.187279	-0.059717
192	256038													9.607793	0.235042	1.960046	0.195492	-0.900858	-0.387606	0.018794	-0.391718	0.919893	-0.980525	-0.187117	-0.059647
193	256205													9.612521	0.262292	1.953591	0.195418	-0.900839	-0.387686	0.018813	-0.391791	0.919862	-0.980540	-0.187051	-0.059615
194	256372													9.592175	0.299757	1.957437	0.195325	-0.900849	-0.387711	0.018920	-0.391791	0.919860	-0.980556	-0.187007	-0.059483
195	256539													9.620689	0.319479	1.958530	0.195187	-0.900874	-0.387721	0.018905	-0.391796	0.919858	-0.980584	-0.186874	-0.059443
196	256705													9.641181	0.263153	1.994960	0.195158	-0.900919	-0.387632	0.018839	-0.391715	0.919894	-0.980591	-0.186827	-0.059474
197	256872													9.646865	0.251318	2.016495	0.195272	-0.900928	-0.387554	0.018813	-0.391648	0.919923	-0.980569	-0.186927	-0.059529
198	257039													9.632771	0.244030	2.032337	0.195371	-0.900942	-0.387471	0.018864	-0.391559	0.919959	-0.980548	-0.187043	-0.059504
199	257205													9.621482	0.270330	1.980596	0.195363	-0.901008	-0.387322	0.018956	-0.391389	0.920030	-0.980548	-0.187082	-0.059384
200	257372													9.605704	0.254799	1.968605	0.195280	-0.900971	-0.387450	0.019059	-0.391495	0.919983	-0.980562	-0.187039	-0.059280
201	257539													9.592428	0.264641	1.953952	0.195217	-0.900954	-0.387522	0.019149	-0.391547	0.919959	-0.980573	-0.187012	-0.059184
202	257705													9.588110	0.279205	1.943394	0.195242	-0.900872	-0.387698	0.019225	-0.391714	0.919886	-0.980567	-0.187054	-0.059160
203	257872													9.626049	0.297015	1.966882	0.195357	-0.900889	-0.387602	0.019293	-0.391610	0.919929	-0.980542	-0.187193	-0.059122
204	258039													9.624690	0.290088	1.976488	0.195478	-0.900901	-0.387514	0.019310	-0.391524	0.919965	-0.980518	-0.187316	-0.059138
205	258205													9.639499	0.260591	1.978047	0.195563	-0.900928	-0.387406	0.019268	-0.391428	0.920007	-0.980502	-0.187384	-0.059189
206	258372													9.619819	0.251797	1.984033	0.195589	-0.900988	-0.387254	0.019232	-0.391281	0.920070	-0.980497	-0.187403	-0.059203
207	258539													9.610764	0.250356	2.012053	0.195595	-0.900936	-0.387371	0.019222	-0.391402	0.920019	-0.980496	-0.187398	-0.059239
208	258705													9.609104	0.260062	2.018762	0.195618	-0.900945	-0.387339	0.019195	-0.391376	0.920031	-0.980492	-0.187409	-0.059267
209	258872													9.603806	0.245913	2.008265	0.195590	-0.900921	-0.387409	0.019220	-0.391442	0.920002	-0.980497	-0.187389	-0.059246
210	259039													9.616272	0.273000	1.974447	0.195601	-0.900914	-0.387420	0.019256	-0.391446	0.920000	-0.980495	-0.187413	-0.059219
211	259205													9.600737	0.283313	1.965587	0.195570	-0.900889	-0.387493	0.019232	-0.391523	0.919967	-0.980501	-0.187370	-0.059244
212	259372													9.634351	0.262724	2.018844	0.195621	-0.900930	-0.387373	0.019223	-0.391406	0.920017	-0.980491	-0.187421	-0.059249
213	259539													9.601027	0.231097	1.965216	0.195617	-0.900873	-0.387508	0.019154	-0.391557	0.919954	-0.980493	-0.187381	-0.059340
214	259705													9.595712	0.252394	1.955177	0.195568	-0.900821	-0.387653	0.019046	-0.391722	0.919886	-0.980505	-0.187284	-0.059451
215	259872													9.608072	0.290255	1.971933	0.195708	-0.900786	-0.387663	0.019027	-0.391745	0.919877	-0.980478	-0.187403	-0.059529
216	260039													9.701267	0.368774	2.015726	0.196045	-0.900724	-0.387637	0.019133	-0.391719	0.919886	-0.980408	-0.187756	-0.059561
217	260205													9.672054	0.308787	2.053113	0.196193	-0.900764	-0.387469	0.018955	-0.391591	0.919944	-0.980382	-0.187831	-0.059753
218	260372													9.592025	0.205028	2.018140	0.196249	-0.900806	-0.387344	0.018948	-0.391468	0.919997	-0.980371	-0.187888	-0.059757
219	260539													9.598512	0.253914	2.012915	0.196319	-0.900776	-0.387376	0.019121	-0.391472	0.919991	-0.980354	-0.188019	-0.059630
220	260705													9.595955	0.277406	2.001464	0.196332	-0.900716	-0.387510	0.019221	-0.391590	0.919939	-0.980349	-0.188062	-0.059568
221	260872													9.590423	0.267993	1.990556	0.196349	-0.900676	-0.387595	0.019251	-0.391673	0.919903	-0.980345	-0.188084	-0.059566
222	261039													9.615007	0.247775	1.989913	0.196385	-0.900604	-0.387745	0.019227	-0.391832	0.919836	-0.980338	-0.188097	-0.059634
223	261205													9.613397	0.244171	1.950823	0.196467	-0.900576	-0.387766	0.019194	-0.391866	0.919822	-0.980323	-0.188158	-0.059703
224	261372													9.606265	0.241294	1.950732	0.196617	-0.900524	-0.387811	0.019239	-0.391912	0.919801	-0.980292	-0.188310	-0.059731
225	261539													9.627787	0.249859	1.950846	0.196760	-0.900519	-0.387751	0.019271	-0.391853	0.919826	-0.980262	-0.188457	-0.059747
226	261705													9.638819	0.264604	1.994924	0.196871	-0.900433	-0.387894	0.019276	-0.392005	0.919761	-0.980240	-0.188551	-0.059818
227	261872													9.629903	0.270039	2.007075	0.196925	-0.900423	-0.387891	0.019296	-0.392002	0.919762	-0.980229	-0.188609	-0.059821
228	262039													9.634788	0.269406	1.992448	0.196979	-0.900423	-0.387863	0.019356	-0.391965	0.919776	-0.980217	-0.188684	-0.059780
229	262205													9.613674	0.272806	1.999780	0.196984	-0.900374	-0.387973	0.019412	-0.392067	0.919732	-0.980215	-0.188703	-0.059753
230	262372													9.603176	0.253865	1.968433	0.196863	-0.900352	-0.388087	0.019335	-0.392191	0.919681	-0.980240	-0.188555	-0.059799
231	262539													9.582880	0.297850	1.954506	0.196829	-0.900299	-0.388228	0.019423	-0.392316	0.919625	-0.980245	-0.188549	-0.059732
232	262705													9.607101	0.332341	1.962175	0.196858	-0.900266	-0.388288	0.019491	-0.392366	0.919603	-0.980238	-0.188600	-0.059693
233	262872													9.621646	0.294397	1.972239	0.196881	-0.900304	-0.388190	0.019472	-0.392270	0.919644	-0.980234	-0.188620	-0.059700
234	263039													9.644048	0.267207	2.010619	0.196948	-0.900312	-0.388136	0.019443	-0.392226	0.919663	-0.980221	-0.188673	-0.059743
235	263205													9.635859	0.245507	2.033120	0.197034	-0.900334	-0.388042	0.019417	-0.392140	0.919701	-0.980204	-0.188747	-0.059784
236	263372													9.619565	0.245936	2.030013	0.197051	-0.900327	-0.388048	0.019445	-0.392142	0.919699	-0.980200	-0.188774	-0.059765
237	263539													9.602238	0.261660	2.014381	0.196998	-0.900321	-0.388091	0.019593	-0.392153	0.919691	-0.980208	-0.188781	-0.059613
238	263705													9.606255	0.276605	2.008244	0.196987	-0.900354	-0.388018	0.019745	-0.392049	0.919732	-0.980207	-0.188837	-0.059452
239	263872													9.599116	0.265229	1.978691	0.197007	-0.900390	-0.387925	0.019885	-0.391929	0.919781	-0.980200	-0.188917	-0.059309
240	264039													9.608961	0.281659	1.973172	0.197069	-0.900311	-0.388078	0.020022	-0.392062	0.919721	-0.980185	-0.189018	-0.059237
241	264205													9.611901	0.281194	1.976502	0.197157	-0.900281	-0.388103	0.020181	-0.392062	0.919717	-0.980164	-0.189161	-0.059129
242	264372													9.628598	0.274388	1.977353	0.197195	-0.900305	-0.388027	0.020210	-0.391981	0.919751	-0.980156	-0.189212	-0.059102
243	264539													9.630787	0.274842	2.019205	0.197223	-0.900350	-0.387908	0.020195	-0.391865	0.919801	-0.980151	-0.189240	-0.059103
244	264705													9.632406	0.250149	2.001284	0.197152	-0.900400	-0.387828	0.020212	-0.391775	0.919839	-0.980165	-0.189186	-0.059041
245	264872													9.627800	0.269707	1.995383	0.197074	-0.900473	-0.387698	0.020182	-0.391643	0.919896	-0.980181	-0.189112	-0.059009
246	265039													9.624111	0.255698	2.009043	0.196996	-0.900457	-0.387775	0.020209	-0.391712	0.919866	-0.980196	-0.189047	-0.058968
247	265205													9.620433	0.276472	1.983230	0.196978	-0.900399	-0.387919	0.020251	-0.391850	0.919806	-0.980199	-0.189037	-0.058952
248	265372													9.613710	0.263881	1.966120	0.196940	-0.900376	-0.387992	0.020251	-0.391922	0.919776	-0.980206	-0.188998	-0.058951
249	265539													9.629770	0.259835	2.001124	0.196978	-0.900326	-0.388088	0.020244	-0.392024	0.919732	-0.980199	-0.189024	-0.058994
250	265705													9.606780	0.224556	1.943408	0.196939	-0.900293	-0.388186	0.020224	-0.392125	0.919689	-0.980207	-0.188974	-0.059017
251	265872													9.600275	0.261693	1.925811	0.196946	-0.900241	-0.388302	0.020201	-0.392249	0.919637	-0.980206	-0.188963	-0.059066
252	266039													9.656816	0.348795	2.005597	0.197241	-0.900176	-0.388304	0.020378	-0.392235	0.919639	-0.980143	-0.189304	-0.059021
253	266205													9.689754	0.365174	2.027963	0.197538	-0.900179	-0.388144	0.020434	-0.392079	0.919704	-0.980082	-0.189608	-0.059056
254	266372													9.655946	0.289853	2.038728	0.197643	-0.900264	-0.387895	0.020308	-0.391856	0.919802	-0.980064	-0.189669	-0.059165
255	266539													9.608997	0.216068	2.008280	0.197690	-0.900290	-0.387809	0.020441	-0.391745	0.919847	-0.980052	-0.189771	-0.059041
256	266705													9.603086	0.264092	2.003398	0.197718	-0.900295	-0.387785	0.020619	-0.391687	0.919867	-0.980042	-0.189870	-0.058881
257	266872													9.585208	0.264178	1.998846	0.197753	-0.900261	-0.387845	0.020698	-0.391735	0.919845	-0.980033	-0.189929	-0.058833
258	267039													9.593466	0.263538	1.974556	0.197823	-0.900268	-0.387793	0.020785	-0.391669	0.919871	-0.980017	-0.190032	-0.058769
259	267205													9.615417	0.256596	1.972296	0.197929	-0.900243	-0.387797	0.020845	-0.391669	0.919870	-0.979995	-0.190153	-0.058757
260	267372													9.591488	0.241272	1.967822	0.198033	-0.900250	-0.387727	0.020878	-0.391597	0.919900	-0.979973	-0.190266	-0.058754
261	267539													9.615363	0.252783	2.018782	0.198127	-0.900225	-0.387738	0.020860	-0.391618	0.919891	-0.979954	-0.190343	-0.058812
262	267705													9.632747	0.242563	1.994208	0.198261	-0.900171	-0.387795	0.020927	-0.391671	0.919867	-0.979926	-0.190489	-0.058815
263	267872													9.627450	0.280246	2.013422	0.198355	-0.900104	-0.387902	0.020972	-0.391778	0.919821	-0.979906	-0.190586	-0.058834
264	268039													9.615766	0.274014	2.020452	0.198414	-0.900008	-0.388095	0.021009	-0.391971	0.919738	-0.979893	-0.190642	-0.058864
265	268205													9.630122	0.286462	2.054148	0.198423	-0.899957	-0.388208	0.021095	-0.392071	0.919693	-0.979890	-0.190677	-0.058811
266	268372													9.605158	0.293837	1.984892	0.198350	-0.899899	-0.388380	0.021228	-0.392215	0.919628	-0.979901	-0.190653	-0.058693
267	268539													9.578528	0.260963	1.956504	0.198163	-0.899927	-0.388410	0.021211	-0.392238	0.919619	-0.979940	-0.190473	-0.058639
268	268705													9.608078	0.298209	1.948922	0.198138	-0.899926	-0.388425	0.021302	-0.392235	0.919618	-0.979943	-0.190485	-0.058546
269	268872													9.586052	0.329326	1.991071	0.198181	-0.899928	-0.388398	0.021347	-0.392201	0.919632	-0.979933	-0.190545	-0.058516
270	269039													9.621045	0.286955	1.989441	0.198204	-0.899960	-0.388312	0.021385	-0.392107	0.919671	-0.979927	-0.190586	-0.058471
271	269205													9.651812	0.283729	2.042715	0.198215	-0.899998	-0.388220	0.021415	-0.392008	0.919713	-0.979925	-0.190615	-0.058429
272	269372													9.640342	0.246562	2.023518	0.198277	-0.900060	-0.388044	0.021444	-0.391826	0.919789	-0.979911	-0.190694	-0.058389
273	269539													9.603218	0.245418	2.017879	0.198331	-0.900062	-0.388013	0.021588	-0.391770	0.919810	-0.979897	-0.190803	-0.058269
274	269705													9.598708	0.286204	1.980203	0.198357	-0.900028	-0.388078	0.021763	-0.391804	0.919791	-0.979888	-0.190893	-0.058129
275	269872													9.594778	0.294097	1.999111	0.198348	-0.899994	-0.388162	0.021938	-0.391854	0.919766	-0.979886	-0.190949	-0.057979
276	270039													9.596577	0.302536	1.969686	0.198377	-0.899909	-0.388344	0.022081	-0.392015	0.919694	-0.979877	-0.191021	-0.057896
277	270205													9.598236	0.285299	1.967125	0.198404	-0.899831	-0.388509	0.022214	-0.392159	0.919629	-0.979869	-0.191088	-0.057817
278	270372													9.617333	0.294561	1.964729	0.198439	-0.899791	-0.388584	0.022316	-0.392218	0.919602	-0.979859	-0.191156	-0.057751
279	270539													9.619830	0.301428	1.992237	0.198455	-0.899804	-0.388547	0.022403	-0.392164	0.919623	-0.979854	-0.191208	-0.057669
280	270705													9.631387	0.292318	1.961872	0.198398	-0.899841	-0.388491	0.022377	-0.392108	0.919647	-0.979866	-0.191150	-0.057658
281	270872													9.617736	0.259456	2.012655	0.198319	-0.899897	-0.388401	0.022277	-0.392031	0.919682	-0.979884	-0.191043	-0.057700
282	271039													9.631755	0.251490	2.004342	0.198251	-0.899921	-0.388380	0.022198	-0.392020	0.919689	-0.979900	-0.190951	-0.057742
283	271205													9.595591	0.261015	1.976148	0.198161	-0.899931	-0.388402	0.022145	-0.392049	0.919678	-0.979919	-0.190846	-0.057760
284	271372													9.624213	0.274290	1.999970	0.198144	-0.899937	-0.388397	0.022107	-0.392049	0.919679	-0.979924	-0.190815	-0.057787
285	271539													9.612785	0.251076	1.976751	0.198155	-0.899880	-0.388523	0.022066	-0.392187	0.919621	-0.979922	-0.190801	-0.057857
286	271705													9.600810	0.242818	1.916025	0.198073	-0.899806	-0.388736	0.022030	-0.392407	0.919528	-0.979940	-0.190697	-0.057903
287	271872													9.605916	0.291500	1.942898	0.198108	-0.899716	-0.388927	0.022005	-0.392609	0.919442	-0.979933	-0.190707	-0.057981
288	272039													9.660415	0.358193	1.991228	0.198391	-0.899604	-0.389042	0.022139	-0.392717	0.919393	-0.979873	-0.191012	-0.057995
289	272205													9.685409	0.363631	2.065413	0.198528	-0.899639	-0.388891	0.021967	-0.392605	0.919445	-0.979849	-0.191079	-0.058181
290	272372													9.620436	0.251208	2.021642	0.198568	-0.899719	-0.388686	0.021897	-0.392412	0.919529	-0.979842	-0.191100	-0.058220
291	272539													9.615398	0.244237	2.045648	0.198602	-0.899750	-0.388597	0.022043	-0.392295	0.919575	-0.979832	-0.191195	-0.058078
292	272705													9.605542	0.268881	1.991976	0.198583	-0.899732	-0.388649	0.022081	-0.392338	0.919556	-0.979835	-0.191190	-0.058045
293	272872													9.590024	0.252907	1.999736	0.198534	-0.899699	-0.388750	0.022086	-0.392438	0.919513	-0.979845	-0.191141	-0.058042
294	273039													9.595628	0.251215	1.973077	0.198510	-0.899657	-0.388858	0.022060	-0.392552	0.919465	-0.979851	-0.191101	-0.058079
295	273206													9.583585	0.247178	1.967644	0.198521	-0.899621	-0.388937	0.022073	-0.392631	0.919431	-0.979848	-0.191111	-0.058088
296	273372													9.602619	0.252297	1.981235	0.198574	-0.899575	-0.389016	0.022024	-0.392724	0.919392	-0.979838	-0.191135	-0.058172
297	273539													9.613935	0.276323	1.955173	0.198596	-0.899515	-0.389143	0.021997	-0.392860	0.919335	-0.979834	-0.191137	-0.058234
298	273706													9.625935	0.282941	2.004818	0.198602	-0.899450	-0.389292	0.021992	-0.393014	0.919269	-0.979834	-0.191130	-0.058273
299	273872													9.651801	0.270746	2.013859	0.198538	-0.899416	-0.389401	0.021953	-0.393130	0.919221	-0.979847	-0.191049	-0.058307
300	274039													9.637460	0.276213	2.013318	0.198438	-0.899407	-0.389474	0.021908	-0.393207	0.919189	-0.979869	-0.190934	-0.058323
301	274206													9.616096	0.279297	2.023071	0.198325	-0.899432	-0.389472	0.021923	-0.393195	0.919194	-0.979891	-0.190838	-0.058262
302	274372													9.591872	0.252559	1.918088	0.198064	-0.899494	-0.389462	0.021909	-0.393171	0.919204	-0.979944	-0.190594	-0.058166
303	274539													9.578787	0.276700	1.941881	0.197870	-0.899506	-0.389534	0.021879	-0.393240	0.919176	-0.979984	-0.190400	-0.058130
304	274706													9.612180	0.310536	1.953396	0.197863	-0.899518	-0.389510	0.021947	-0.393201	0.919190	-0.979984	-0.190422	-0.058058
305	274872													9.615864	0.292376	1.951386	0.197811	-0.899550	-0.389463	0.021994	-0.393141	0.919215	-0.979993	-0.190397	-0.057983
306	275039													9.662472	0.280604	1.948432	0.197741	-0.899555	-0.389486	0.022019	-0.393156	0.919208	-0.980007	-0.190342	-0.057935
307	275206													9.667965	0.283461	2.012343	0.197726	-0.899619	-0.389346	0.021987	-0.393017	0.919268	-0.980011	-0.190324	-0.057929
308	275372													9.626040	0.242102	2.013941	0.197752	-0.899632	-0.389302	0.022021	-0.392968	0.919289	-0.980005	-0.190364	-0.057899
309	275539													9.604953	0.246122	2.015393	0.197734	-0.899649	-0.389273	0.022127	-0.392916	0.919308	-0.980006	-0.190392	-0.057787
310	275706													9.609743	0.293759	2.013275	0.197604	-0.899658	-0.389317	0.022283	-0.392923	0.919301	-0.980029	-0.190332	-0.057596
311	275872													9.607837	0.291146	1.963583	0.197483	-0.899662	-0.389370	0.022434	-0.392940	0.919290	-0.980050	-0.190279	-0.057416
312	276039													9.602821	0.274567	1.975672	0.197437	-0.899651	-0.389418	0.022559	-0.392962	0.919278	-0.980056	-0.190285	-0.057291
313	276206													9.597907	0.283339	1.949537	0.197440	-0.899647	-0.389426	0.022607	-0.392962	0.919277	-0.980054	-0.190306	-0.057248
314	276372													9.633014	0.287781	1.970619	0.197414	-0.899694	-0.389331	0.022654	-0.392853	0.919322	-0.980058	-0.190307	-0.057173
315	276539													9.635481	0.281255	1.980891	0.197353	-0.899716	-0.389311	0.022620	-0.392837	0.919330	-0.980072	-0.190238	-0.057176
316	276706													9.630859	0.265650	1.992610	0.197248	-0.899733	-0.389325	0.022514	-0.392865	0.919320	-0.980095	-0.190100	-0.057235
317	276872													9.641475	0.238041	1.989985	0.197117	-0.899766	-0.389316	0.022429	-0.392864	0.919323	-0.980123	-0.189946	-0.057259
318	277039													9.625145	0.255709	1.971805	0.197049	-0.899766	-0.389350	0.022408	-0.392899	0.919309	-0.980138	-0.189873	-0.057259
319	277206													9.613420	0.273840	1.956917	0.196943	-0.899790	-0.389348	0.022384	-0.392896	0.919311	-0.980159	-0.189767	-0.057237
320	277372													9.626145	0.276786	1.992542	0.196883	-0.899767	-0.389430	0.022357	-0.392981	0.919275	-0.980172	-0.189696	-0.057255
321	277539													9.616225	0.232029	1.913178	0.196779	-0.899757	-0.389508	0.022253	-0.393074	0.919237	-0.980195	-0.189554	-0.057327
322	277706													9.611594	0.246069	1.918589	0.196629	-0.899727	-0.389651	0.022163	-0.393229	0.919173	-0.980227	-0.189372	-0.057379
323	277872													9.659747	0.313855	1.956074	0.196709	-0.899704	-0.389665	0.022201	-0.393241	0.919167	-0.980211	-0.189459	-0.057379
324	278039													9.681033	0.348952	2.010755	0.196988	-0.899651	-0.389645	0.022263	-0.393225	0.919173	-0.980153	-0.189740	-0.057431
325	278206													9.667907	0.322274	2.044412	0.197059	-0.899764	-0.389350	0.022089	-0.392961	0.919290	-0.980143	-0.189755	-0.057561
326	278372													9.613518	0.217398	1.990102	0.196988	-0.899852	-0.389181	0.022122	-0.392779	0.919367	-0.980156	-0.189714	-0.057467
327	278539													9.610610	0.245120	2.022023	0.196921	-0.899980	-0.388920	0.022268	-0.392480	0.919491	-0.980166	-0.189727	-0.057247
328	278706													9.599713	0.292907	1.998886	0.196803	-0.900125	-0.388643	0.022249	-0.392193	0.919614	-0.980191	-0.189630	-0.057157
329	278872													9.577976	0.235870	1.964104	0.196760	-0.900176	-0.388547	0.022191	-0.392103	0.919653	-0.980200	-0.189574	-0.057174
330	279039													9.598698	0.249315	1.927644	0.196822	-0.900217	-0.388421	0.022155	-0.391985	0.919705	-0.980189	-0.189623	-0.057207
331	279206													9.610013	0.221575	1.934764	0.196953	-0.900237	-0.388308	0.022170	-0.391875	0.919751	-0.980162	-0.189756	-0.057222
332	279372													9.639750	0.241320	1.964408	0.197019	-0.900238	-0.388272	0.022074	-0.391860	0.919760	-0.980151	-0.189781	-0.057332
333	279539													9.646870	0.249076	1.948529	0.197081	-0.900237	-0.388243	0.022015	-0.391846	0.919767	-0.980140	-0.189815	-0.057407
334	279706													9.649365	0.267507	1.963760	0.197177	-0.900176	-0.388336	0.022007	-0.391948	0.919724	-0.980121	-0.189895	-0.057473
335	279872													9.644838	0.256835	1.966344	0.197203	-0.900148	-0.388387	0.021951	-0.392013	0.919698	-0.980117	-0.189893	-0.057547
336	280039													9.648194	0.263575	1.973896	0.197198	-0.900153	-0.388377	0.021905	-0.392011	0.919700	-0.980119	-0.189870	-0.057586
337	280206													9.617548	0.290907	1.963724	0.197179	-0.900159	-0.388373	0.021939	-0.392000	0.919704	-0.980122	-0.189867	-0.057546
338	280372													9.592307	0.262457	1.892638	0.197090	-0.900215	-0.388290	0.021916	-0.391914	0.919741	-0.980140	-0.189781	-0.057514
339	280539													9.625542	0.271913	1.931846	0.197184	-0.900231	-0.388205	0.021854	-0.391845	0.919772	-0.980123	-0.189848	-0.057592
340	280706													9.632088	0.279008	1.974066	0.197477	-0.900230	-0.388057	0.021919	-0.391699	0.919832	-0.980062	-0.190151	-0.057619
341	280872													9.668324	0.286497	1.959738	0.197804	-0.900236	-0.387876	0.021939	-0.391530	0.919904	-0.979996	-0.190470	-0.057695
342	281039													9.688135	0.243000	1.977216	0.198195	-0.900180	-0.387808	0.021969	-0.391478	0.919925	-0.979916	-0.190844	-0.057813
343	281206													9.673067	0.243056	2.011550	0.198733	-0.900134	-0.387639	0.022005	-0.391331	0.919987	-0.979807	-0.191362	-0.057962
344	281372													9.650656	0.238736	2.002333	0.199417	-0.900050	-0.387482	0.022075	-0.391198	0.920042	-0.979666	-0.192025	-0.058143
345	281539													9.609318	0.240467	1.996377	0.200198	-0.899900	-0.387428	0.022260	-0.391153	0.920056	-0.979503	-0.192818	-0.058276
346	281706													9.601367	0.274852	1.987584	0.201014	-0.899737	-0.387385	0.022451	-0.391121	0.920065	-0.979331	-0.193644	-0.058421
347	281872													9.612681	0.276536	1.983577	0.201795	-0.899583	-0.387335	0.022599	-0.391089	0.920075	-0.979167	-0.194420	-0.058590
348	282039													9.659782	0.293003	1.993338	0.202684	-0.899439	-0.387206	0.022687	-0.390994	0.920113	-0.978981	-0.195276	-0.058843
349	282206													9.653494	0.285542	2.018218	0.203649	-0.899324	-0.386967	0.022717	-0.390803	0.920194	-0.978780	-0.196187	-0.059157
350	282372													9.660636	0.285032	2.059797	0.204680	-0.899249	-0.386597	0.022815	-0.390469	0.920334	-0.978563	-0.197194	-0.059405
351	282539													9.643135	0.273028	2.032540	0.205788	-0.899120	-0.386310	0.022808	-0.390245	0.920429	-0.978331	-0.198224	-0.059800
352	282706													9.624413	0.272088	2.057868	0.206867	-0.899007	-0.385996	0.022738	-0.390006	0.920532	-0.978105	-0.199204	-0.060238
353	282872													9.613008	0.259642	2.087348	0.207984	-0.898923	-0.385590	0.022680	-0.389672	0.920674	-0.977869	-0.200231	-0.060658
354	283039													9.576013	0.266488	2.042997	0.209118	-0.898833	-0.385186	0.022621	-0.389343	0.920815	-0.977629	-0.201272	-0.061087
355	283206													9.633089	0.291675	2.099473	0.210478	-0.898751	-0.384637	0.022575	-0.388878	0.921013	-0.977338	-0.202536	-0.061561
356	283372													9.613586	0.241900	2.083452	0.212064	-0.898756	-0.383754	0.022488	-0.388094	0.921346	-0.976997	-0.204014	-0.062089
357	283539													9.587846	0.239298	2.053787	0.213840	-0.898558	-0.383231	0.022436	-0.387684	0.921519	-0.976611	-0.205656	-0.062742
358	283706													9.600498	0.228525	2.082826	0.215795	-0.898249	-0.382861	0.022476	-0.387426	0.921627	-0.976180	-0.207487	-0.063416
359	283872													9.623104	0.355187	2.175389	0.218000	-0.897761	-0.382754	0.022703	-0.387416	0.921626	-0.975685	-0.209604	-0.064075
360	284039													9.635685	0.264825	2.157393	0.220217	-0.897220	-0.382755	0.022779	-0.387550	0.921567	-0.975185	-0.211663	-0.064907
361	284206													9.587964	0.230655	2.191536	0.222278	-0.896741	-0.382685	0.022822	-0.387611	0.921540	-0.974716	-0.213572	-0.065692
362	284372													9.593346	0.230750	2.207222	0.224481	-0.896124	-0.382845	0.022970	-0.387897	0.921417	-0.974208	-0.215634	-0.066492
363	284539													9.577493	0.275699	2.273943	0.226880	-0.895562	-0.382745	0.023053	-0.387944	0.921394	-0.973650	-0.217869	-0.067372
364	284706													9.535670	0.296923	2.254661	0.229333	-0.895212	-0.382101	0.022972	-0.387477	0.921593	-0.973077	-0.220129	-0.068296
365	284872													9.561875	0.278538	2.214289	0.231911	-0.894832	-0.381435	0.022901	-0.386994	0.921798	-0.972467	-0.222510	-0.069256
366	285039													9.588136	0.276503	2.253298	0.234723	-0.894498	-0.380498	0.022797	-0.386260	0.922108	-0.971795	-0.225114	-0.070273
367	285206													9.562778	0.245439	2.317333	0.237828	-0.894170	-0.379337	0.022589	-0.385346	0.922496	-0.971044	-0.227965	-0.071447
368	285372													9.577749	0.254118	2.315222	0.241129	-0.893732	-0.378286	0.022501	-0.384534	0.922836	-0.970232	-0.231035	-0.072613
369	285539													9.564158	0.248321	2.395589	0.244652	-0.893267	-0.377121	0.022499	-0.383606	0.923223	-0.969350	-0.234353	-0.073753
370	285706													9.546382	0.272160	2.606749	0.248409	-0.892778	-0.375820	0.022571	-0.382541	0.923663	-0.968392	-0.237929	-0.074875
371	285872													9.572131	0.288470	2.660722	0.252117	-0.892368	-0.374322	0.022523	-0.381301	0.924177	-0.967435	-0.241432	-0.076034
372	286039													9.538385	0.265013	2.664073	0.255840	-0.892033	-0.372590	0.022337	-0.379859	0.924775	-0.966461	-0.244917	-0.077258
373	286206													9.450364	0.262028	2.694202	0.259687	-0.891819	-0.370436	0.022059	-0.378017	0.925536	-0.965441	-0.248521	-0.078493
374	286372													9.458993	0.306698	2.627524	0.263787	-0.891424	-0.368484	0.021658	-0.376444	0.926186	-0.964338	-0.252296	-0.079994
375	286539													9.399350	0.240827	2.661933	0.267792	-0.891145	-0.366262	0.021345	-0.374566	0.926955	-0.963240	-0.256049	-0.081284
376	286706													9.478118	0.214806	2.615260	0.271824	-0.890914	-0.363845	0.021062	-0.372483	0.927800	-0.962116	-0.259861	-0.082486
377	286872													9.472237	0.241243	2.768164	0.275952	-0.890790	-0.361033	0.020683	-0.370027	0.928791	-0.960949	-0.263768	-0.083686
378	287039													9.480226	0.228650	2.694084	0.280002	-0.890835	-0.357788	0.020122	-0.367168	0.929937	-0.959789	-0.267583	-0.084883
379	287206													9.432293	0.187209	2.491128	0.284158	-0.890846	-0.354468	0.019432	-0.364281	0.931086	-0.958581	-0.271464	-0.086202
380	287372													9.407602	0.213409	2.689794	0.288273	-0.890623	-0.351694	0.018964	-0.361904	0.932022	-0.957361	-0.275346	-0.087437
381	287539													9.435050	0.268125	2.830269	0.292243	-0.890393	-0.348990	0.018635	-0.359550	0.932940	-0.956162	-0.279149	-0.088483
382	287706													9.401765	0.234130	2.848919	0.296101	-0.890080	-0.346527	0.018250	-0.357458	0.933751	-0.954982	-0.282808	-0.089599
383	287872													9.381160	0.196072	2.879827	0.300052	-0.889246	-0.345268	0.018025	-0.356595	0.934085	-0.953753	-0.286498	-0.090968
384	288039													9.386350	0.168956	2.788850	0.303886	-0.888353	-0.344212	0.017870	-0.355920	0.934346	-0.952541	-0.290086	-0.092284
385	288206													9.456952	0.198230	2.994255	0.307792	-0.887365	-0.343288	0.017856	-0.355352	0.934562	-0.951286	-0.293781	-0.093530
386	288372													9.345371	0.193692	3.078596	0.311592	-0.886399	-0.342355	0.017847	-0.354769	0.934784	-0.950048	-0.297381	-0.094723
387	288539													9.302835	0.165593	3.141034	0.315415	-0.885357	-0.341551	0.017794	-0.354343	0.934946	-0.948787	-0.300973	-0.096011
388	288706													9.324630	0.138981	3.312965	0.319191	-0.884267	-0.340864	0.017766	-0.354032	0.935064	-0.947524	-0.304520	-0.097294
389	288872													9.274315	0.209349	3.416670	0.322966	-0.883142	-0.340226	0.017784	-0.353765	0.935165	-0.946244	-0.308077	-0.098548
390	289039													9.295379	0.228504	3.138986	0.327122	-0.882178	-0.338752	0.017439	-0.352778	0.935545	-0.944821	-0.311945	-0.100017
391	289206													9.165003	0.150312	3.137187	0.331843	-0.880847	-0.337622	0.017125	-0.352219	0.935761	-0.943179	-0.316308	-0.101797
392	289372													9.271712	0.177556	3.277940	0.336246	-0.879562	-0.336616	0.016938	-0.351721	0.935951	-0.941622	-0.320412	-0.103367
393	289539													9.276345	0.184355	3.400330	0.340640	-0.878228	-0.335679	0.016732	-0.351313	0.936109	-0.940045	-0.324493	-0.104976
394	289706													9.222239	0.157450	3.513876	0.344915	-0.876917	-0.334740	0.016439	-0.350926	0.936259	-0.938490	-0.328432	-0.106624
395	289873													9.279696	0.326933	3.454309	0.349180	-0.875535	-0.333935	0.016245	-0.350656	0.936363	-0.936915	-0.332384	-0.108219
396	290039													9.228138	0.202768	3.420060	0.353315	-0.874168	-0.333165	0.015932	-0.350460	0.936442	-0.935369	-0.336167	-0.109896
397	290206													9.132794	0.194611	3.511747	0.357204	-0.872805	-0.332591	0.015593	-0.350462	0.936447	-0.933896	-0.339689	-0.111577
398	290373													9.102361	0.227821	3.594804	0.360849	-0.871440	-0.332235	0.015496	-0.350585	0.936403	-0.932496	-0.343048	-0.113004
399	290539													9.089965	0.265979	3.695418	0.364313	-0.870322	-0.331383	0.015212	-0.350229	0.936541	-0.931152	-0.346235	-0.114354
400	290706													9.107361	0.233863	3.742201	0.367925	-0.869220	-0.330285	0.014814	-0.349675	0.936754	-0.929737	-0.349548	-0.115778
401	290873													9.103781	0.213994	3.768205	0.371940	-0.867998	-0.328999	0.014253	-0.349044	0.936998	-0.928147	-0.353196	-0.117452
402	291039													9.154470	0.192248	3.606311	0.376533	-0.866634	-0.327367	0.013535	-0.348190	0.937326	-0.926304	-0.357365	-0.119375
403	291206													9.119845	0.065842	3.489981	0.381158	-0.865022	-0.326274	0.012813	-0.347939	0.937429	-0.924421	-0.361490	-0.121536
404	291373													9.114297	0.120562	3.837546	0.385655	-0.863408	-0.325266	0.012075	-0.347784	0.937497	-0.922564	-0.365478	-0.123699
405	291539													9.064256	0.118724	3.835872	0.390001	-0.861821	-0.324289	0.011301	-0.347671	0.937549	-0.920745	-0.369310	-0.125853
406	291706													9.021905	0.116443	3.881871	0.394422	-0.860178	-0.323303	0.010481	-0.347592	0.937587	-0.918870	-0.373194	-0.128083
407	291873													9.029959	0.097836	3.975063	0.399111	-0.858248	-0.322678	0.009725	-0.347940	0.937466	-0.916851	-0.377291	-0.130521
408	292039													8.956931	0.074878	4.066554	0.403927	-0.856294	-0.321875	0.008955	-0.348138	0.937401	-0.914747	-0.381524	-0.132954
409	292206													8.962303	0.102608	3.982304	0.408555	-0.854444	-0.320948	0.008107	-0.348223	0.937377	-0.912698	-0.385572	-0.135341
410	292373													8.995281	0.098561	4.099013	0.413497	-0.852245	-0.320468	0.007417	-0.348802	0.937167	-0.910475	-0.389893	-0.137908
411	292539													9.022727	0.170039	4.197884	0.419057	-0.849779	-0.319791	0.006766	-0.349276	0.936995	-0.907935	-0.394818	-0.140617
412	292706													8.998723	0.080564	4.098866	0.425056	-0.847221	-0.318659	0.005899	-0.349444	0.936939	-0.905148	-0.400132	-0.143535
413	292873													9.075452	0.106129	4.147111	0.431298	-0.844347	-0.317900	0.005175	-0.350036	0.936722	-0.902195	-0.405651	-0.146600
414	293039													8.980938	0.140872	4.171351	0.438127	-0.841101	-0.317164	0.004438	-0.350803	0.936439	-0.898902	-0.411687	-0.149964
415	293206													8.849568	0.178365	4.309580	0.446169	-0.837227	-0.316204	0.003625	-0.351627	0.936133	-0.894942	-0.418819	-0.153850
416	293373													8.817265	0.047158	4.206300	0.454652	-0.833216	-0.314711	0.002688	-0.352057	0.935975	-0.890665	-0.426388	-0.157824
417	293539													8.890635	0.031385	4.428889	0.463656	-0.828611	-0.313731	0.002097	-0.353065	0.935596	-0.886013	-0.434453	-0.161963
418	293706													8.972307	0.063973	4.510490	0.472554	-0.823856	-0.312974	0.001684	-0.354282	0.935137	-0.881300	-0.442430	-0.166030
419	293873													8.869712	0.035303	4.723002	0.481859	-0.818737	-0.312221	0.001220	-0.355688	0.934604	-0.876248	-0.450728	-0.170392
420	294039													8.685294	0.126937	4.768070	0.491637	-0.813358	-0.311033	0.000440	-0.356948	0.934124	-0.870800	-0.459387	-0.175131
421	294206													8.512833	0.016104	4.811960	0.501995	-0.807546	-0.309630	-0.000410	-0.358230	0.933633	-0.864871	-0.468552	-0.180161
422	294373													8.487607	0.134708	5.005716	0.512271	-0.801657	-0.308099	-0.001239	-0.359435	0.933169	-0.858823	-0.477654	-0.185121
423	294539													8.474455	-0.050238	5.110966	0.522241	-0.795702	-0.306796	-0.001891	-0.360832	0.932629	-0.852796	-0.486477	-0.189946
424	294706													8.407261	0.161350	5.259011	0.531939	-0.789285	-0.306709	-0.001719	-0.363211	0.931705	-0.846781	-0.495083	-0.194563
425	294873													8.095809	0.322089	5.367802	0.541747	-0.782814	-0.306123	-0.001885	-0.365328	0.930877	-0.840539	-0.503723	-0.199391
426	295039													7.903044	0.224297	5.385249	0.551693	-0.776435	-0.304604	-0.002402	-0.366689	0.930340	-0.834044	-0.512531	-0.204165
427	295206													7.832839	0.002357	5.502069	0.561304	-0.770222	-0.302814	-0.002753	-0.367625	0.929970	-0.827605	-0.521163	-0.208470
428	295373													7.681529	-0.025961	5.613770	0.570190	-0.764236	-0.301374	-0.002867	-0.368701	0.929544	-0.821508	-0.529152	-0.212421
429	295539													7.761003	-0.042146	5.718516	0.577960	-0.758816	-0.300267	-0.002859	-0.369825	0.929097	-0.816060	-0.536123	-0.215913
430	295706													7.788757	0.132825	5.882740	0.585077	-0.753663	-0.299460	-0.002804	-0.371136	0.928574	-0.810973	-0.542448	-0.219257
431	295873													7.709268	0.047069	5.899490	0.591887	-0.749060	-0.297622	-0.003694	-0.371765	0.928320	-0.806013	-0.548361	-0.222809
432	296039													7.752556	-0.074496	5.945530	0.598512	-0.744400	-0.296060	-0.004383	-0.372598	0.927982	-0.801102	-0.554111	-0.226267
433	296206													7.778795	0.051110	6.074898	0.605337	-0.739644	-0.294099	-0.005218	-0.373164	0.927751	-0.795952	-0.560067	-0.229749
434	296373													7.828457	-0.170008	6.004910	0.612143	-0.734762	-0.292243	-0.006086	-0.373945	0.927431	-0.790724	-0.565942	-0.233380
435	296539													7.684324	-0.149585	6.013787	0.618923	-0.729756	-0.290500	-0.007018	-0.374974	0.927009	-0.785420	-0.571708	-0.237202
436	296706													7.690791	-0.177482	5.962758	0.625674	-0.724297	-0.289700	-0.007239	-0.376745	0.926289	-0.780051	-0.577457	-0.240962
437	296873													7.684544	-0.070339	5.973836	0.632316	-0.718837	-0.288877	-0.007175	-0.378301	0.925655	-0.774678	-0.583233	-0.244364
438	297039													7.649892	-0.193435	6.019312	0.639002	-0.713315	-0.287852	-0.007007	-0.379602	0.925123	-0.769173	-0.589138	-0.247565
439	297206													7.601436	-0.107886	6.222204	0.645753	-0.707687	-0.286675	-0.006695	-0.380685	0.924680	-0.763517	-0.595196	-0.250567
440	297373													7.536139	-0.050593	6.369134	0.652496	-0.702220	-0.284844	-0.006658	-0.381184	0.924475	-0.757763	-0.601319	-0.253397
441	297539													7.508124	-0.086619	6.448933	0.659228	-0.696820	-0.282595	-0.006871	-0.381387	0.924390	-0.751912	-0.607442	-0.256209
442	297706													7.469640	-0.083119	6.519502	0.665964	-0.691469	-0.279932	-0.007444	-0.381393	0.924383	-0.745946	-0.613522	-0.259142
443	297873													7.372276	-0.121702	6.522455	0.672844	-0.686019	-0.276872	-0.008290	-0.381229	0.924444	-0.739738	-0.619711	-0.262195
444	298039													7.254418	-0.147786	6.641175	0.679718	-0.680449	-0.273812	-0.009172	-0.381164	0.924462	-0.733417	-0.625862	-0.265325
445	298206													7.123179	-0.202160	6.918180	0.686256	-0.675203	-0.270471	-0.010352	-0.380882	0.924566	-0.727287	-0.631688	-0.268372
446	298373													7.086799	-0.387374	6.889792	0.692317	-0.670381	-0.266993	-0.011757	-0.380435	0.924733	-0.721497	-0.637070	-0.271264
447	298539													6.871420	-0.375362	6.949502	0.697883	-0.665722	-0.264149	-0.012825	-0.380370	0.924746	-0.716097	-0.641976	-0.273991
448	298706													6.690038	-0.376964	6.804923	0.702922	-0.661407	-0.261612	-0.013788	-0.380413	0.924714	-0.711133	-0.646395	-0.276520
449	298873													6.591799	-0.354965	6.840444	0.707498	-0.657244	-0.259764	-0.014132	-0.380650	0.924611	-0.706574	-0.650490	-0.278597
450	299039													6.633348	-0.304370	6.942393	0.711628	-0.653208	-0.258660	-0.013798	-0.381093	0.924434	-0.702421	-0.654284	-0.280209
451	299206													6.673395	-0.139108	7.090246	0.715277	-0.649349	-0.258310	-0.012929	-0.381859	0.924130	-0.698721	-0.657669	-0.281530
452	299373													6.661944	0.092036	7.155038	0.718530	-0.645858	-0.258035	-0.012100	-0.382561	0.923851	-0.695391	-0.660693	-0.282696
453	299539													6.609842	0.039088	7.091756	0.721553	-0.642801	-0.257231	-0.011644	-0.382742	0.923782	-0.692261	-0.663562	-0.283654
454	299706													6.597844	-0.029139	7.022374	0.724503	-0.639906	-0.256156	-0.011138	-0.382453	0.923908	-0.689182	-0.666521	-0.284216
455	299873													6.720408	-0.004460	7.024754	0.727367	-0.637017	-0.255238	-0.010282	-0.382007	0.924102	-0.686171	-0.669537	-0.284410
456	300039													6.764551	0.102205	7.153954	0.730230	-0.634086	-0.254361	-0.009431	-0.381627	0.924268	-0.683137	-0.672529	-0.284656
457	300206													6.830739	0.102086	7.052114	0.733002	-0.631361	-0.253160	-0.008910	-0.381051	0.924511	-0.680168	-0.675413	-0.284937
458	300373													6.828187	0.176863	7.103235	0.735754	-0.628628	-0.251978	-0.008492	-0.380595	0.924703	-0.677196	-0.678214	-0.285363
459	300539													6.800062	0.112223	7.070334	0.738492	-0.625975	-0.250571	-0.008363	-0.380097	0.924909	-0.674211	-0.680942	-0.285933
460	300706													6.775477	0.050984	7.169993	0.741213	-0.623355	-0.249061	-0.008409	-0.379623	0.925103	-0.671217	-0.683604	-0.286624
461	300873													6.774434	-0.001300	7.186214	0.743994	-0.620693	-0.247413	-0.008646	-0.379187	0.925280	-0.668131	-0.686263	-0.287479
462	301039													6.693210	0.001079	7.206904	0.746746	-0.618066	-0.245694	-0.009030	-0.378791	0.925438	-0.665048	-0.688848	-0.288441
463	301206													6.681914	-0.068354	7.301307	0.749518	-0.615300	-0.244188	-0.009425	-0.378754	0.925449	-0.661917	-0.691340	-0.289682
464	301373													6.542922	-0.055658	7.316816	0.752232	-0.612407	-0.243113	-0.009677	-0.379198	0.925265	-0.658827	-0.693662	-0.291171
465	301539													6.474276	-0.052312	7.375297	0.754910	-0.609510	-0.242092	-0.010000	-0.379794	0.925017	-0.655752	-0.695884	-0.292805
466	301706													6.392816	-0.071530	7.410595	0.757525	-0.606683	-0.241024	-0.010369	-0.380347	0.924786	-0.652724	-0.698049	-0.294413
467	301873													6.297431	-0.105843	7.504665	0.760097	-0.603863	-0.240006	-0.010882	-0.381126	0.924459	-0.649719	-0.700066	-0.296264
468	302039													6.225985	-0.143575	7.483310	0.762538	-0.601097	-0.239204	-0.011380	-0.382151	0.924030	-0.646844	-0.701886	-0.298245
469	302206													6.158057	-0.179695	7.495498	0.764853	-0.598391	-0.238597	-0.011790	-0.383314	0.923543	-0.644097	-0.703561	-0.300234
470	302373													6.145837	-0.026580	7.655066	0.767131	-0.595565	-0.238354	-0.011826	-0.384628	0.922996	-0.641382	-0.705240	-0.302103
471	302539													6.205433	0.069305	7.740008	0.769306	-0.592904	-0.237978	-0.011919	-0.385747	0.922528	-0.638770	-0.706869	-0.303824
472	302706													6.119728	-0.087240	7.804663	0.771226	-0.590660	-0.237343	-0.012296	-0.386604	0.922164	-0.636443	-0.708278	-0.305421
473	302873													6.030621	-0.162907	7.752864	0.772787	-0.588779	-0.236938	-0.012507	-0.387383	0.921834	-0.634542	-0.709418	-0.306728
474	303039													6.003359	-0.176136	7.737596	0.774053	-0.587191	-0.236746	-0.012496	-0.388032	0.921561	-0.632997	-0.710379	-0.307695
475	303206													5.964124	-0.134573	7.711002	0.774949	-0.586015	-0.236728	-0.012372	-0.388550	0.921345	-0.631902	-0.711067	-0.308357
476	303373													5.953835	-0.169773	7.763631	0.775514	-0.585127	-0.237076	-0.011995	-0.389107	0.921115	-0.631217	-0.711493	-0.308776
477	303539													5.965754	-0.087703	7.831692	0.775767	-0.584602	-0.237541	-0.011593	-0.389580	0.920920	-0.630913	-0.711666	-0.309000
478	303706													6.045644	-0.153081	7.753938	0.775792	-0.584441	-0.237856	-0.011383	-0.389858	0.920804	-0.630886	-0.711645	-0.309102
479	303873													6.108826	-0.146070	7.718802	0.775656	-0.584444	-0.238290	-0.011197	-0.390228	0.920650	-0.631056	-0.711440	-0.309227
480	304039													6.170399	-0.147249	7.702217	0.775400	-0.584590	-0.238767	-0.011111	-0.390684	0.920458	-0.631373	-0.711070	-0.309431
481	304206													6.164320	-0.111711	7.714529	0.775061	-0.584925	-0.239046	-0.011207	-0.390971	0.920335	-0.631787	-0.710637	-0.309581
482	304373													6.167881	-0.149267	7.701624	0.774660	-0.585339	-0.239333	-0.011249	-0.391160	0.920254	-0.632278	-0.710191	-0.309601
483	304539													6.233037	-0.048820	7.639135	0.774131	-0.585821	-0.239864	-0.011189	-0.391521	0.920101	-0.632927	-0.709595	-0.309643
484	304706													6.211081	0.036009	7.671772	0.773462	-0.586468	-0.240441	-0.011221	-0.391949	0.919919	-0.633743	-0.708824	-0.309739
485	304873													6.169804	-0.021386	7.644398	0.772667	-0.587392	-0.240741	-0.011492	-0.392112	0.919846	-0.634707	-0.707968	-0.309723
486	305039													6.156996	-0.128483	7.637868	0.771649	-0.588646	-0.240943	-0.011841	-0.392041	0.919872	-0.635938	-0.706965	-0.309488
487	305206													6.221054	-0.097783	7.599731	0.770198	-0.590327	-0.241474	-0.011964	-0.391906	0.919927	-0.637693	-0.705637	-0.308908
488	305373													6.258217	-0.028438	7.620870	0.768404	-0.592384	-0.242149	-0.012035	-0.391688	0.920020	-0.639851	-0.704033	-0.308104
489	305539													6.265140	-0.054382	7.511415	0.766345	-0.594651	-0.243116	-0.011974	-0.391588	0.920063	-0.642318	-0.702175	-0.307211
490	305706													6.125812	-0.118866	7.393629	0.764357	-0.596700	-0.244351	-0.011692	-0.391724	0.920008	-0.644687	-0.700358	-0.306393
491	305873													6.250546	-0.164992	7.519032	0.761795	-0.599267	-0.246066	-0.011297	-0.392069	0.919866	-0.647720	-0.697969	-0.305446
492	306039													6.262932	-0.090821	7.620440	0.758404	-0.602788	-0.247932	-0.011027	-0.392201	0.919813	-0.651692	-0.694856	-0.304094
493	306206													6.182611	-0.203711	7.366010	0.754663	-0.606861	-0.249404	-0.011203	-0.391987	0.919903	-0.656016	-0.691423	-0.302617
494	306373													5.975034	-0.035840	7.509561	0.750732	-0.610538	-0.252281	-0.010147	-0.392504	0.919694	-0.660529	-0.687884	-0.300861
495	306540													6.139729	0.028279	7.524196	0.745925	-0.615231	-0.255120	-0.009333	-0.392663	0.919635	-0.665964	-0.683598	-0.298639
496	306706													6.286106	-0.091718	7.568168	0.740256	-0.620845	-0.258016	-0.008585	-0.392464	0.919727	-0.672271	-0.678618	-0.295854
497	306873													6.333004	-0.121776	7.575301	0.733849	-0.627083	-0.261213	-0.007766	-0.392245	0.919828	-0.679268	-0.672986	-0.292718
498	307040													6.410439	-0.131524	7.296881	0.727037	-0.633586	-0.264549	-0.006947	-0.392072	0.919908	-0.686563	-0.666969	-0.289452
499	307206													6.421042	-0.131995	7.203198	0.720094	-0.639968	-0.268152	-0.005903	-0.392091	0.919908	-0.693852	-0.660837	-0.286120
500	307373													6.562645	0.016365	7.056864	0.712698	-0.646520	-0.272164	-0.004562	-0.392254	0.919846	-0.701456	-0.654330	-0.282508
501	307540													6.755584	0.047014	7.129518	0.704735	-0.653475	-0.276259	-0.003224	-0.392334	0.919817	-0.709463	-0.647337	-0.278599
502	307706													6.885077	-0.010081	7.053679	0.696005	-0.661278	-0.279801	-0.002479	-0.391885	0.920011	-0.718033	-0.639639	-0.274393
503	307873													6.914251	-0.125104	6.832993	0.686817	-0.669274	-0.283469	-0.001753	-0.391530	0.920164	-0.726828	-0.631487	-0.270083
504	308040													7.106658	-0.084969	6.644024	0.677140	-0.677572	-0.287015	-0.001169	-0.391033	0.920376	-0.735853	-0.622888	-0.265576
505	308206													7.131269	0.045611	6.561086	0.667039	-0.685847	-0.290987	-0.000521	-0.391004	0.920389	-0.745023	-0.613783	-0.261173
506	308373													7.291860	0.063148	6.458493	0.656170	-0.694802	-0.294435	-0.000276	-0.390401	0.920645	-0.754613	-0.604018	-0.256361
507	308540													7.510654	0.048275	6.311161	0.644791	-0.703960	-0.297801	-0.000058	-0.389653	0.920962	-0.764359	-0.593810	-0.251285
508	308706													7.538109	0.099731	6.149299	0.633024	-0.713209	-0.301020	0.000099	-0.388774	0.921333	-0.774132	-0.583256	-0.246033
509	308873													7.718213	-0.081972	5.991877	0.620992	-0.722277	-0.304443	0.000544	-0.388014	0.921653	-0.783817	-0.572505	-0.240560
510	309040													7.674249	0.030017	6.091156	0.608605	-0.731255	-0.308003	0.001080	-0.387407	0.921908	-0.793473	-0.561410	-0.234988
511	309206													7.779603	0.012134	5.835351	0.595657	-0.740335	-0.311604	0.001531	-0.386887	0.922126	-0.803238	-0.549748	-0.229318
512	309373													7.887120	0.000707	5.674281	0.582473	-0.749051	-0.315672	0.002258	-0.386859	0.922136	-0.812847	-0.537832	-0.223644
513	309540													7.949784	0.098203	5.668684	0.569223	-0.757295	-0.320140	0.003179	-0.387347	0.921928	-0.822177	-0.525801	-0.218079
514	309706													8.078890	0.105782	5.672744	0.555939	-0.765532	-0.323870	0.003777	-0.387301	0.921946	-0.831214	-0.513769	-0.212425
515	309873													8.112901	0.056595	5.562232	0.542718	-0.773696	-0.326881	0.003931	-0.386839	0.922139	-0.839906	-0.501746	-0.206903
516	310040													8.260705	-0.054577	5.246074	0.529593	-0.781508	-0.329812	0.004144	-0.386426	0.922311	-0.848241	-0.489817	-0.201410
517	310206													8.377192	0.017885	5.142150	0.516491	-0.788495	-0.333936	0.005032	-0.387177	0.921992	-0.856278	-0.477881	-0.196006
518	310373													8.364274	0.198577	5.096900	0.503884	-0.795153	-0.337391	0.005488	-0.387647	0.921792	-0.863754	-0.466328	-0.190965
519	310540													8.545785	0.059544	4.959569	0.491497	-0.801800	-0.339923	0.005614	-0.387396	0.921896	-0.870861	-0.455017	-0.185902
520	310706													8.644272	0.075771	4.695714	0.479399	-0.808293	-0.341818	0.005474	-0.386732	0.922176	-0.877580	-0.443961	-0.180974
521	310873													8.782984	-0.091796	4.368901	0.467065	-0.814344	-0.344520	0.005820	-0.386790	0.922150	-0.884204	-0.432709	-0.175916
522	311040													8.781765	0.083623	4.418487	0.454867	-0.819590	-0.348380	0.006716	-0.388024	0.921625	-0.890534	-0.421556	-0.170995
523	311206													8.790352	0.196384	4.276934	0.443125	-0.824783	-0.351246	0.007142	-0.388554	0.921398	-0.896432	-0.410803	-0.166288
524	311373													8.931662	0.102245	4.011801	0.431787	-0.829899	-0.353310	0.007287	-0.388485	0.921426	-0.901946	-0.400434	-0.161695
525	311540													8.999656	-0.028671	3.755736	0.420142	-0.835005	-0.355312	0.007577	-0.388305	0.921500	-0.907427	-0.389853	-0.156817
526	311706													9.121792	0.146519	3.788454	0.408685	-0.839613	-0.357809	0.008316	-0.388602	0.921368	-0.912638	-0.379525	-0.151833
527	311873													9.145885	0.179689	3.876249	0.397505	-0.844064	-0.359925	0.008777	-0.388731	0.921310	-0.917558	-0.369384	-0.147114
528	312040													9.168136	0.130794	3.580041	0.386628	-0.848551	-0.361220	0.008813	-0.388262	0.921507	-0.922194	-0.359463	-0.142635
529	312206													9.146538	0.049544	3.505433	0.376146	-0.852519	-0.362941	0.009096	-0.388291	0.921492	-0.926516	-0.349917	-0.138299
530	312373													9.071223	0.088372	3.552278	0.365891	-0.856165	-0.364837	0.009708	-0.388488	0.921403	-0.930607	-0.340675	-0.133832
531	312540													9.227065	0.072596	3.453729	0.355613	-0.860074	-0.365803	0.010073	-0.387837	0.921673	-0.934579	-0.331444	-0.129256
532	312706													9.236018	-0.054394	3.324532	0.345398	-0.863342	-0.367886	0.010944	-0.388280	0.921476	-0.938393	-0.322302	-0.124663
533	312873													9.165157	0.186437	3.458055	0.334830	-0.867057	-0.368918	0.011686	-0.387666	0.921726	-0.942206	-0.312933	-0.119670
534	313040													9.307872	0.309913	3.479219	0.324168	-0.871002	-0.369148	0.011965	-0.386414	0.922248	-0.945924	-0.303380	-0.114841
535	313206													9.325019	0.190523	3.511127	0.313761	-0.874994	-0.368699	0.012037	-0.384611	0.923000	-0.949426	-0.294040	-0.110143
536	313373													9.300246	0.035923	2.935475	0.303894	-0.878352	-0.368980	0.012085	-0.383712	0.923374	-0.952629	-0.285067	-0.105993
537	313540													9.346320	0.130028	3.022860	0.294427	-0.881233	-0.369784	0.012495	-0.383353	0.923517	-0.955592	-0.276529	-0.101859
538	313706													9.486861	0.268744	2.947367	0.285092	-0.883993	-0.370513	0.012835	-0.382999	0.923659	-0.958414	-0.268083	-0.097844
539	313873													9.510975	0.224050	2.881317	0.276018	-0.886543	-0.371288	0.013134	-0.382780	0.923746	-0.961063	-0.259848	-0.094010
540	314040													9.507611	0.194402	2.526941	0.267530	-0.888885	-0.371901	0.013274	-0.382533	0.923846	-0.963458	-0.252094	-0.090540
541	314206													9.518737	0.083859	2.238790	0.259679	-0.890513	-0.373569	0.013441	-0.383469	0.923456	-0.965601	-0.244823	-0.087610
542	314373													9.515894	0.041293	2.239433	0.251835	-0.891534	-0.376492	0.013911	-0.385655	0.922538	-0.967670	-0.237564	-0.084719
543	314540													9.628116	0.129676	2.234856	0.244362	-0.892347	-0.379478	0.014414	-0.387956	0.921565	-0.969577	-0.230665	-0.081939
544	314706													9.639324	0.240550	2.333686	0.237676	-0.893330	-0.381407	0.015081	-0.389218	0.921022	-0.971228	-0.224656	-0.079035
545	314873													9.778797	0.231369	2.133564	0.231975	-0.894398	-0.382413	0.015444	-0.389701	0.920812	-0.972599	-0.219511	-0.076588
546	315040													9.756558	0.153415	2.006074	0.227105	-0.895514	-0.382724	0.015420	-0.389637	0.920839	-0.973748	-0.215029	-0.074679
547	315206													9.538161	0.191409	2.087128	0.222128	-0.896184	-0.384074	0.015498	-0.390620	0.920422	-0.974894	-0.210404	-0.072878
548	315373													9.634897	0.273416	2.007812	0.217290	-0.897034	-0.384857	0.015595	-0.391037	0.920243	-0.975982	-0.205962	-0.070980
549	315540													9.568184	0.207112	1.992575	0.212657	-0.898145	-0.384853	0.015787	-0.390653	0.920403	-0.976999	-0.201806	-0.068896
550	315706													9.657392	0.125241	1.912106	0.208287	-0.898966	-0.385326	0.016213	-0.390739	0.920359	-0.977933	-0.197946	-0.066811
551	315873													9.527650	0.055414	2.101647	0.203571	-0.898923	-0.387939	0.016903	-0.392950	0.919404	-0.978914	-0.193722	-0.064799
552	316040													9.630304	0.135631	2.180670	0.198636	-0.899131	-0.390009	0.017590	-0.394604	0.918683	-0.979916	-0.189344	-0.062567
553	316206													9.543698	0.170546	2.096163	0.193723	-0.899804	-0.390927	0.017923	-0.395163	0.918436	-0.980893	-0.184929	-0.060425
554	316373													9.419927	-0.085466	1.541929	0.187049	-0.899874	-0.394005	0.018243	-0.397833	0.917277	-0.982181	-0.178764	-0.057998
555	316540													9.676730	0.198820	1.906293	0.179376	-0.899235	-0.399000	0.018440	-0.402434	0.915263	-0.983608	-0.171534	-0.055605
556	316706													9.744311	0.387685	1.934352	0.172739	-0.899599	-0.401103	0.018459	-0.404196	0.914486	-0.984795	-0.165371	-0.053214
557	316873													9.706344	0.256163	1.799142	0.167140	-0.900576	-0.401281	0.018394	-0.404087	0.914536	-0.985762	-0.160237	-0.050974
558	317040													9.802705	0.100212	1.608495	0.162330	-0.901585	-0.400991	0.018589	-0.403515	0.914784	-0.986561	-0.155951	-0.048743
559	317206													9.889377	0.196124	1.631693	0.159299	-0.902610	-0.399898	0.019037	-0.402187	0.915360	-0.987047	-0.153429	-0.046885
560	317373													9.803116	0.273575	1.505802	0.157311	-0.904066	-0.397388	0.019354	-0.399499	0.916529	-0.987359	-0.151871	-0.045348
561	317540													9.765617	0.242486	1.505692	0.155865	-0.905257	-0.395242	0.019316	-0.397263	0.917502	-0.987589	-0.150641	-0.044433
562	317706													9.770975	0.128542	1.587752	0.154538	-0.906429	-0.393072	0.019329	-0.395001	0.918477	-0.987798	-0.149538	-0.043522
563	317873													9.784045	0.198232	1.630466	0.152808	-0.907480	-0.391319	0.019225	-0.393165	0.919267	-0.988069	-0.147994	-0.042632
564	318040													9.799692	0.201688	1.553645	0.150760	-0.908178	-0.390491	0.019262	-0.392232	0.919664	-0.988383	-0.146170	-0.041640
565	318206													9.733391	0.170422	1.544994	0.148293	-0.908212	-0.391356	0.019462	-0.392975	0.919343	-0.988752	-0.143948	-0.040600
566	318373													9.733469	0.232272	1.586073	0.145474	-0.908324	-0.392153	0.019617	-0.393643	0.919054	-0.989168	-0.141391	-0.039447
567	318540													9.698554	0.259350	1.638616	0.142780	-0.908770	-0.392110	0.019897	-0.393454	0.919129	-0.989554	-0.139035	-0.038096
568	318706													9.754275	0.263961	1.534180	0.139838	-0.909378	-0.391762	0.020164	-0.392952	0.919338	-0.989969	-0.136458	-0.036613
569	318873													9.849229	0.259969	1.389757	0.136830	-0.909896	-0.391620	0.020316	-0.392677	0.919452	-0.990386	-0.133765	-0.035245
570	319040													9.845243	0.273952	1.358819	0.134044	-0.910333	-0.391569	0.020454	-0.392509	0.919521	-0.990764	-0.131266	-0.033993
571	319206													9.857958	0.290674	1.291251	0.131793	-0.910776	-0.391302	0.020608	-0.392142	0.919674	-0.991063	-0.129271	-0.032912
572	319373													9.859329	0.261035	1.198379	0.130206	-0.911224	-0.390791	0.020608	-0.391574	0.919916	-0.991273	-0.127832	-0.032207
573	319540													9.794286	0.199036	1.150978	0.129065	-0.911625	-0.390234	0.020458	-0.390994	0.920166	-0.991425	-0.126745	-0.031814
574	319706													9.717564	0.237490	1.187306	0.127602	-0.912185	-0.389405	0.020327	-0.390127	0.920537	-0.991617	-0.125378	-0.031239
575	319873													9.780340	0.237264	1.100824	0.125945	-0.912553	-0.389083	0.020357	-0.389746	0.920697	-0.991828	-0.123878	-0.030510
576	320040													9.848660	0.299359	1.076027	0.124767	-0.912699	-0.389118	0.020267	-0.389757	0.920695	-0.991979	-0.122759	-0.030131
577	320206													9.786001	0.248157	1.113795	0.124196	-0.912735	-0.389216	0.019995	-0.389872	0.920652	-0.992056	-0.122124	-0.030170
578	320373													9.776723	0.182525	1.114697	0.123989	-0.912742	-0.389266	0.019630	-0.389960	0.920622	-0.992089	-0.121789	-0.030434
579	320540													9.767833	0.143655	1.101324	0.123765	-0.912777	-0.389256	0.019332	-0.389980	0.920620	-0.992123	-0.121466	-0.030620
580	320706													9.789470	0.131182	1.193805	0.123561	-0.912795	-0.389279	0.019245	-0.390007	0.920611	-0.992150	-0.121244	-0.030623
581	320873													9.785444	0.136367	1.195930	0.123265	-0.912771	-0.389428	0.019306	-0.390141	0.920553	-0.992186	-0.120990	-0.030469
582	321040													9.776774	0.186225	1.143712	0.122986	-0.912664	-0.389769	0.019317	-0.390474	0.920411	-0.992220	-0.120727	-0.030393
583	321206													9.779332	0.244435	1.140826	0.123141	-0.912478	-0.390155	0.019314	-0.390869	0.920244	-0.992201	-0.120855	-0.030509
584	321373													9.833838	0.335016	1.203670	0.123938	-0.912231	-0.390478	0.019508	-0.391196	0.920101	-0.992098	-0.121653	-0.030689
585	321540													9.829759	0.284792	1.283807	0.125084	-0.912087	-0.390449	0.019354	-0.391222	0.920093	-0.991957	-0.122646	-0.031283
586	321706													9.751783	0.173370	1.265425	0.126048	-0.911933	-0.390501	0.019304	-0.391311	0.920056	-0.991836	-0.123510	-0.031720
587	321873													9.740570	0.169766	1.325165	0.126903	-0.911695	-0.390779	0.019452	-0.391601	0.919930	-0.991724	-0.124344	-0.031961
588	322040													9.776052	0.191359	1.326180	0.127893	-0.911394	-0.391159	0.019641	-0.391992	0.919759	-0.991594	-0.125313	-0.032232
589	322206													9.753513	0.213730	1.300686	0.129026	-0.910993	-0.391720	0.019753	-0.392583	0.919505	-0.991444	-0.126378	-0.032658
590	322373													9.729189	0.207107	1.290134	0.130219	-0.910538	-0.392381	0.019701	-0.393296	0.919201	-0.991290	-0.127428	-0.033276
591	322540													9.757088	0.194472	1.260621	0.131572	-0.910138	-0.392858	0.019716	-0.393823	0.918975	-0.991111	-0.128657	-0.033872
592	322706													9.793468	0.207272	1.294644	0.133350	-0.909731	-0.393201	0.019856	-0.394212	0.918805	-0.990870	-0.130330	-0.034504
593	322873													9.790468	0.202333	1.347233	0.135400	-0.909307	-0.393481	0.020020	-0.394546	0.918658	-0.990589	-0.132264	-0.035217
594	323040													9.784582	0.205598	1.347081	0.137476	-0.908822	-0.393882	0.020099	-0.395016	0.918454	-0.990301	-0.134183	-0.036039
595	323207													9.793701	0.216006	1.363210	0.139621	-0.908257	-0.394431	0.020185	-0.395639	0.918184	-0.989999	-0.136159	-0.036906
596	323373													9.795669	0.238101	1.380492	0.142006	-0.907631	-0.395019	0.020274	-0.396312	0.917892	-0.989658	-0.138354	-0.037877
597	323540													9.786542	0.224616	1.383803	0.144767	-0.906951	-0.395577	0.020530	-0.396950	0.917611	-0.989253	-0.140961	-0.038846
598	323707													9.779317	0.256796	1.426495	0.147876	-0.906325	-0.395864	0.020865	-0.397317	0.917444	-0.988786	-0.143928	-0.039843
599	323873													9.723211	0.225873	1.391289	0.150936	-0.905790	-0.395933	0.021124	-0.397475	0.917370	-0.988318	-0.146828	-0.040859
600	324040													9.774784	0.215325	1.401810	0.154189	-0.905206	-0.396014	0.021342	-0.397662	0.917284	-0.987811	-0.149887	-0.041996
601	324207													9.792383	0.253411	1.431795	0.157756	-0.904631	-0.395925	0.021598	-0.397689	0.917266	-0.987242	-0.153255	-0.043200
602	324373													9.797530	0.259573	1.476012	0.161550	-0.904042	-0.395740	0.021741	-0.397649	0.917280	-0.986625	-0.156791	-0.044586
603	324540													9.807961	0.254166	1.478054	0.165594	-0.903490	-0.395329	0.021839	-0.397406	0.917383	-0.985952	-0.160547	-0.046076
604	324707													9.768652	0.240431	1.565109	0.169856	-0.902898	-0.394873	0.021899	-0.397139	0.917497	-0.985226	-0.164489	-0.047684
605	324873													9.659090	0.227891	1.623278	0.173997	-0.902355	-0.394310	0.021926	-0.396768	0.917657	-0.984502	-0.168315	-0.049251
606	325040													9.681335	0.175110	1.652514	0.177992	-0.901828	-0.393733	0.022075	-0.396362	0.917829	-0.983784	-0.172058	-0.050642
607	325207													9.749668	0.211345	1.703927	0.182282	-0.901165	-0.393289	0.022413	-0.396078	0.917943	-0.982991	-0.176139	-0.052000
608	325373													9.782079	0.280680	1.786862	0.187074	-0.900427	-0.392727	0.022643	-0.395726	0.918089	-0.982085	-0.180643	-0.053641
609	325540													9.775741	0.257460	1.812959	0.192594	-0.899619	-0.391909	0.022771	-0.395181	0.918321	-0.981014	-0.185787	-0.055624
610	325707													9.727277	0.237939	1.946530	0.198817	-0.898707	-0.390894	0.022866	-0.394494	0.918614	-0.979770	-0.191574	-0.057882
611	325873													9.701438	0.243155	2.049468	0.205530	-0.898008	-0.389022	0.022884	-0.392990	0.919258	-0.978383	-0.197838	-0.060221
612	326040													9.692389	0.262348	2.078325	0.212642	-0.897546	-0.386258	0.022639	-0.390667	0.920254	-0.976868	-0.204429	-0.062752
613	326207													9.672349	0.206516	2.030390	0.220198	-0.897169	-0.382885	0.022178	-0.387813	0.921471	-0.975203	-0.211398	-0.065498
614	326373													9.706411	0.237737	2.130717	0.228561	-0.896640	-0.379204	0.021756	-0.384713	0.922780	-0.973286	-0.219161	-0.068423
615	326540													9.749517	0.267308	2.125259	0.238193	-0.895395	-0.376207	0.021191	-0.382472	0.923724	-0.970987	-0.227996	-0.072127
616	326707													9.583256	0.246724	2.324344	0.248901	-0.893681	-0.373340	0.020403	-0.380547	0.924536	-0.968314	-0.237735	-0.076484
617	326873													9.480135	0.121738	2.190623	0.259878	-0.891833	-0.370265	0.019917	-0.378408	0.925425	-0.965436	-0.247872	-0.080577
618	327040													9.610572	0.199826	2.412025	0.271145	-0.889319	-0.368228	0.019941	-0.377287	0.925881	-0.962332	-0.258391	-0.084565
619	327207													9.512712	0.255141	2.346320	0.282650	-0.886757	-0.365747	0.020005	-0.375763	0.926500	-0.959014	-0.269192	-0.088470
620	327373													9.546918	0.169211	2.355711	0.294564	-0.883679	-0.363791	0.020135	-0.374857	0.926864	-0.955420	-0.280346	-0.092626
621	327540													9.501095	0.208137	2.905489	0.307289	-0.879985	-0.362214	0.020453	-0.374435	0.927028	-0.951396	-0.292274	-0.097061
622	327707													9.410506	0.308880	3.076247	0.319883	-0.876567	-0.359589	0.020622	-0.373000	0.927602	-0.947233	-0.304140	-0.101240
623	327873													9.361835	0.129990	2.980681	0.332810	-0.873001	-0.356520	0.020710	-0.371215	0.928316	-0.942766	-0.316337	-0.105464
624	328040													9.265531	0.096206	3.366997	0.345466	-0.868819	-0.354693	0.021169	-0.370653	0.928530	-0.938193	-0.328284	-0.109656
625	328207													9.287306	0.273719	3.590696	0.358548	-0.864363	-0.352591	0.021414	-0.369990	0.928789	-0.933266	-0.340565	-0.114150
626	328373													9.190504	0.154730	3.387685	0.372835	-0.858975	-0.350936	0.021313	-0.370178	0.928716	-0.927653	-0.353737	-0.119708
627	328540													8.946051	0.147173	3.814267	0.387502	-0.852444	-0.350972	0.021980	-0.372066	0.927946	-0.921607	-0.367295	-0.125439
628	328707													9.147926	0.253681	4.000043	0.402163	-0.845967	-0.350150	0.022627	-0.373140	0.927499	-0.915288	-0.380929	-0.130922
629	328873													9.023634	0.327232	4.293684	0.417423	-0.839350	-0.348210	0.022667	-0.373454	0.927372	-0.908430	-0.394999	-0.136863
630	329040													8.624239	0.133672	4.023582	0.431275	-0.833390	-0.345634	0.022522	-0.373028	0.927547	-0.901940	-0.407812	-0.142108
631	329207													8.888077	0.126443	4.225874	0.444257	-0.827043	-0.344436	0.022995	-0.373806	0.927222	-0.895604	-0.419845	-0.147048
632	329373													8.621601	0.415810	4.902877	0.456691	-0.820710	-0.343319	0.022990	-0.374897	0.926781	-0.889328	-0.431145	-0.152344
633	329540													8.368973	0.496668	5.151717	0.467746	-0.815541	-0.340743	0.021918	-0.374694	0.926889	-0.883591	-0.441017	-0.157387
634	329707													8.541495	0.306137	4.751047	0.478846	-0.810996	-0.336144	0.019614	-0.372918	0.927657	-0.877680	-0.450798	-0.162663
635	329873													8.415659	0.000800	4.594343	0.490092	-0.805767	-0.332489	0.018149	-0.371924	0.928086	-0.871482	-0.460882	-0.167652
636	330040													8.271897	0.252861	5.112408	0.500837	-0.800006	-0.330383	0.017687	-0.372167	0.927997	-0.865361	-0.470619	-0.172245
637	330207													8.183364	0.374957	5.332385	0.510326	-0.795179	-0.327503	0.016546	-0.371677	0.928215	-0.859822	-0.479111	-0.176520
638	330373													8.136454	0.297286	5.429271	0.519115	-0.790861	-0.324127	0.014856	-0.370821	0.928586	-0.854575	-0.486858	-0.180750
639	330540													8.198787	0.127713	4.988500	0.527326	-0.787117	-0.319960	0.012521	-0.369333	0.929213	-0.849571	-0.494004	-0.184904
640	330707													8.330141	0.055772	5.222249	0.535790	-0.782419	-0.317411	0.011367	-0.369205	0.929279	-0.844275	-0.501506	-0.188922
641	330873													8.066501	0.340188	5.504324	0.543104	-0.778476	-0.314664	0.009956	-0.368752	0.929474	-0.839607	-0.507934	-0.192520
642	331040													8.128221	0.267778	5.565966	0.549756	-0.775106	-0.311416	0.008062	-0.367867	0.929844	-0.835287	-0.513697	-0.195988
643	331207													8.111825	0.019752	5.525936	0.556013	-0.771982	-0.308048	0.005975	-0.366896	0.930243	-0.831152	-0.519068	-0.199387
644	331373													8.199251	0.032346	5.591691	0.562115	-0.768369	-0.306001	0.004890	-0.366893	0.930250	-0.827045	-0.524404	-0.202479
645	331540													8.164520	0.146357	5.670488	0.568118	-0.764697	-0.304105	0.003644	-0.367191	0.930138	-0.822939	-0.529536	-0.205821
646	331707													8.191734	0.177507	5.651461	0.574349	-0.760849	-0.302046	0.002138	-0.367579	0.929990	-0.818608	-0.534784	-0.209492
647	331873													7.913770	-0.086339	5.623795	0.581120	-0.756772	-0.299324	0.000272	-0.367622	0.929975	-0.813818	-0.540509	-0.213427
648	332040													7.897044	-0.212815	5.575282	0.587658	-0.752311	-0.297802	-0.000533	-0.368421	0.929659	-0.809109	-0.546163	-0.216906
649	332207													7.876372	-0.021505	5.741810	0.594151	-0.747630	-0.296705	-0.000969	-0.369540	0.929214	-0.804353	-0.551806	-0.220287
650	332373													7.803233	0.040625	5.844868	0.600326	-0.743135	-0.295567	-0.001448	-0.370581	0.928799	-0.799754	-0.557154	-0.223546
651	332540													7.845027	0.056052	5.887143	0.606415	-0.738700	-0.294251	-0.002042	-0.371504	0.928429	-0.795146	-0.562412	-0.226793
652	332707													7.776289	0.029520	5.960527	0.612937	-0.734162	-0.292085	-0.003271	-0.372021	0.928219	-0.790125	-0.567985	-0.230427
653	332873													7.622282	-0.156940	5.944242	0.619315	-0.729697	-0.289812	-0.004469	-0.372390	0.928066	-0.785130	-0.573470	-0.233887
654	333040													7.715298	-0.162256	5.984006	0.625458	-0.725216	-0.287861	-0.005243	-0.372829	0.927885	-0.780240	-0.578844	-0.236991
655	333207													7.706170	-0.049768	6.089502	0.631332	-0.720967	-0.285704	-0.006194	-0.373082	0.927778	-0.775488	-0.583966	-0.240004
656	333373													7.643258	-0.084224	6.179618	0.636986	-0.717013	-0.283094	-0.007531	-0.373008	0.927798	-0.770839	-0.588862	-0.243000
657	333540													7.474360	-0.209660	6.229485	0.642093	-0.713445	-0.280559	-0.008933	-0.372903	0.927827	-0.766575	-0.593245	-0.245811
658	333707													7.608114	-0.198607	6.208241	0.646461	-0.710190	-0.278779	-0.009932	-0.373200	0.927698	-0.762882	-0.596952	-0.248313
659	333873													7.516226	-0.162885	6.270783	0.650350	-0.707229	-0.277259	-0.010876	-0.373621	0.927518	-0.759557	-0.600195	-0.250677
660	334040													7.444065	-0.150730	6.296532	0.653913	-0.704457	-0.275930	-0.011727	-0.374106	0.927312	-0.756479	-0.603146	-0.252894
661	334207													7.361615	-0.178749	6.350626	0.657363	-0.701768	-0.274584	-0.012435	-0.374427	0.927173	-0.753472	-0.606075	-0.254861
662	334373													7.269169	-0.193899	6.408436	0.660736	-0.699038	-0.273447	-0.012873	-0.374795	0.927018	-0.750508	-0.608995	-0.256639
663	334540													7.320779	-0.184067	6.497865	0.664015	-0.696283	-0.272534	-0.013000	-0.375182	0.926860	-0.747606	-0.611906	-0.258178
664	334707													7.280885	-0.161074	6.616829	0.667346	-0.693421	-0.271691	-0.013036	-0.375630	0.926678	-0.744633	-0.614874	-0.259714
665	334873													7.241467	-0.147117	6.694650	0.670809	-0.690472	-0.270673	-0.013202	-0.376029	0.926514	-0.741512	-0.617941	-0.261359
666	335040													7.201427	-0.172341	6.698380	0.674499	-0.687372	-0.269389	-0.013532	-0.376339	0.926383	-0.738152	-0.621200	-0.263141
667	335207													7.123669	-0.126167	6.690391	0.678518	-0.683986	-0.267913	-0.013837	-0.376550	0.926293	-0.734454	-0.624799	-0.264960
668	335373													7.126064	-0.104452	6.745220	0.682633	-0.680525	-0.266268	-0.014306	-0.376746	0.926206	-0.730622	-0.628449	-0.266915
669	335540													7.179283	-0.112114	6.700500	0.686680	-0.677035	-0.264754	-0.014834	-0.377168	0.926026	-0.726809	-0.631956	-0.269037
670	335707													7.119472	-0.122726	6.738326	0.690649	-0.673601	-0.263184	-0.015610	-0.377721	0.925788	-0.723022	-0.635286	-0.271387
671	335873													7.086613	-0.148846	6.750490	0.694614	-0.670130	-0.261606	-0.016425	-0.378333	0.925524	-0.719195	-0.638585	-0.273802
672	336040													7.136257	-0.154276	6.875898	0.698735	-0.666419	-0.260106	-0.017020	-0.378974	0.925251	-0.715178	-0.642078	-0.276145
673	336207													7.060261	-0.214796	6.912995	0.702763	-0.662704	-0.258742	-0.017524	-0.379711	0.924939	-0.711208	-0.645479	-0.278460
674	336373													7.003131	-0.275769	6.846198	0.706416	-0.659203	-0.257735	-0.017963	-0.380717	0.924517	-0.707569	-0.648464	-0.280786
675	336540													6.903574	-0.247859	6.854001	0.709752	-0.655581	-0.257810	-0.017767	-0.382515	0.923779	-0.704227	-0.651073	-0.283138
676	336707													6.822637	-0.081089	6.856647	0.712982	-0.651907	-0.258212	-0.017462	-0.384647	0.922899	-0.700965	-0.653502	-0.285630
677	336873													6.773477	-0.071808	6.910181	0.716045	-0.648331	-0.258741	-0.017150	-0.386887	0.921968	-0.697843	-0.655733	-0.288148
678	337040													6.778286	-0.015204	7.051943	0.718890	-0.645050	-0.259053	-0.016920	-0.388799	0.921167	-0.694918	-0.657835	-0.290418
679	337207													6.690261	-0.069058	7.214158	0.721463	-0.642220	-0.258930	-0.016925	-0.390175	0.920585	-0.692246	-0.659786	-0.292366
680	337373													6.664494	-0.101621	7.249295	0.723894	-0.639659	-0.258485	-0.017122	-0.391205	0.920144	-0.689699	-0.661661	-0.294143
681	337540													6.623009	-0.092460	7.201986	0.726307	-0.637227	-0.257721	-0.017563	-0.392020	0.919789	-0.687146	-0.663523	-0.295918
682	337707													6.664044	-0.140861	7.246155	0.728824	-0.634802	-0.256598	-0.018343	-0.392726	0.919472	-0.684456	-0.665426	-0.297873
683	337873													6.573684	-0.168630	7.254863	0.731340	-0.632414	-0.255331	-0.019341	-0.393460	0.919138	-0.681738	-0.667265	-0.299985
684	338040													6.489979	-0.279840	7.218177	0.733859	-0.629974	-0.254134	-0.020217	-0.394200	0.918802	-0.679001	-0.669133	-0.302024
685	338207													6.525369	-0.226062	7.218655	0.736405	-0.627314	-0.253345	-0.020694	-0.395183	0.918369	-0.676224	-0.671049	-0.303997
686	338373													6.519763	-0.075602	7.362389	0.739073	-0.624437	-0.252684	-0.021015	-0.396302	0.917880	-0.673298	-0.673070	-0.306018
687	338540													6.569685	0.008287	7.280868	0.741671	-0.621750	-0.251697	-0.021568	-0.397151	0.917500	-0.670417	-0.675054	-0.307966
688	338707													6.582296	-0.118683	7.274710	0.744127	-0.619314	-0.250451	-0.022467	-0.397893	0.917157	-0.667660	-0.676854	-0.309997
689	338873													6.568138	-0.035762	7.392602	0.746474	-0.617022	-0.249121	-0.023431	-0.398526	0.916858	-0.665002	-0.678573	-0.311946
690	339040													6.534418	-0.162786	7.380785	0.748696	-0.615102	-0.247192	-0.024896	-0.398715	0.916737	-0.662446	-0.680203	-0.313830
691	339207													6.620957	-0.217656	7.247778	0.750819	-0.613075	-0.245785	-0.026036	-0.399297	0.916452	-0.659995	-0.681690	-0.315762
692	339373													6.571505	-0.144422	7.414695	0.752797	-0.611127	-0.244581	-0.027216	-0.400140	0.916050	-0.657690	-0.682943	-0.317857
693	339540													6.460063	-0.313836	7.445451	0.754644	-0.609411	-0.243167	-0.028566	-0.400770	0.915733	-0.655512	-0.684107	-0.319847
694	339707													6.375085	-0.372277	7.360295	0.756441	-0.607649	-0.241990	-0.029685	-0.401495	0.915380	-0.653388	-0.685248	-0.321745
695	339874													6.371950	-0.319721	7.395387	0.758198	-0.605758	-0.241231	-0.030607	-0.402631	0.914851	-0.651305	-0.686255	-0.323814
696	340040													6.385711	-0.274445	7.484022	0.759854	-0.604038	-0.240333	-0.031670	-0.403645	0.914367	-0.649321	-0.687175	-0.325841
697	340207													6.339430	-0.371624	7.527737	0.761417	-0.602523	-0.239186	-0.032759	-0.404256	0.914059	-0.647434	-0.688145	-0.327545
698	340374													6.231626	-0.469308	7.445512	0.762841	-0.601188	-0.238004	-0.033677	-0.404536	0.913902	-0.645708	-0.689147	-0.328843
699	340540													6.310583	-0.484696	7.464734	0.764176	-0.599752	-0.237344	-0.034043	-0.404961	0.913700	-0.644109	-0.690148	-0.329879
700	340707													6.285569	-0.433778	7.522105	0.765367	-0.598303	-0.237163	-0.033982	-0.405552	0.913440	-0.642696	-0.691058	-0.330728
701	340874													6.272746	-0.390341	7.502244	0.766446	-0.596979	-0.237016	-0.033860	-0.406046	0.913225	-0.641415	-0.691913	-0.331426
702	341040													6.206481	-0.411407	7.549273	0.767408	-0.595833	-0.236787	-0.033767	-0.406357	0.913090	-0.640270	-0.692717	-0.331961
703	341207													6.170082	-0.453675	7.569278	0.768295	-0.594776	-0.236568	-0.033661	-0.406612	0.912981	-0.639211	-0.693475	-0.332419
704	341374													6.243962	-0.439987	7.502561	0.769199	-0.593641	-0.236479	-0.033398	-0.406914	0.912856	-0.638136	-0.694270	-0.332824
705	341540													6.310499	-0.397466	7.559543	0.770108	-0.592446	-0.236521	-0.033055	-0.407334	0.912681	-0.637057	-0.695044	-0.333274
706	341707													6.247644	-0.329715	7.633200	0.770916	-0.591359	-0.236608	-0.032682	-0.407714	0.912525	-0.636098	-0.695747	-0.333639
707	341874													6.216939	-0.331627	7.618823	0.771661	-0.590420	-0.236524	-0.032484	-0.407972	0.912416	-0.635204	-0.696393	-0.333995
708	342040													6.185119	-0.386644	7.583828	0.772348	-0.589583	-0.236368	-0.032367	-0.408163	0.912335	-0.634374	-0.696990	-0.334327
709	342207													6.236914	-0.401835	7.576201	0.773014	-0.588688	-0.236425	-0.032132	-0.408535	0.912177	-0.633575	-0.697528	-0.334719
710	342374													6.169390	-0.323704	7.662133	0.773557	-0.587932	-0.236527	-0.031981	-0.408974	0.911985	-0.632919	-0.697909	-0.335168
711	342540													6.045646	-0.324151	7.652640	0.774026	-0.587455	-0.236180	-0.032110	-0.408962	0.911986	-0.632339	-0.698317	-0.335411
712	342707													6.109186	-0.430951	7.547246	0.774449	-0.587016	-0.235885	-0.032156	-0.408904	0.912011	-0.631819	-0.698720	-0.335551
713	342874													6.155538	-0.375726	7.642046	0.774831	-0.586345	-0.236297	-0.031700	-0.409355	0.911824	-0.631373	-0.699020	-0.335768
714	343040													6.136890	-0.297074	7.723798	0.775080	-0.585767	-0.236915	-0.031068	-0.409823	0.911636	-0.631099	-0.699230	-0.335844
715	343207													6.118737	-0.247458	7.773551	0.775203	-0.585376	-0.237477	-0.030299	-0.409947	0.911606	-0.630985	-0.699484	-0.335528
716	343374													6.173444	-0.362699	7.713016	0.775081	-0.585249	-0.238187	-0.029434	-0.409994	0.911613	-0.631176	-0.699563	-0.335005
717	343540													6.111042	-0.239999	7.700014	0.774530	-0.585609	-0.239091	-0.028612	-0.410037	0.911620	-0.631889	-0.699236	-0.334342
718	343707													6.111081	-0.194542	7.568922	0.773721	-0.586159	-0.240361	-0.027398	-0.410005	0.911672	-0.632933	-0.698794	-0.333289
719	343874													6.000757	-0.173785	7.470816	0.772849	-0.586972	-0.241181	-0.026387	-0.409453	0.911949	-0.634041	-0.698435	-0.331934
720	344040													5.992783	-0.304941	7.485718	0.771399	-0.588538	-0.242005	-0.025362	-0.408433	0.912436	-0.635846	-0.697715	-0.329992
721	344207													6.080807	-0.232245	7.578355	0.769194	-0.590644	-0.243888	-0.023601	-0.407659	0.912829	-0.638580	-0.696386	-0.327508
722	344374													6.128977	-0.128963	7.719172	0.766122	-0.593737	-0.246036	-0.021975	-0.406795	0.913255	-0.642320	-0.694258	-0.324702
723	344540													6.156212	-0.263229	7.572237	0.762145	-0.597905	-0.248283	-0.020735	-0.405851	0.913704	-0.647074	-0.691227	-0.321715
724	344707													5.931897	-0.217036	7.493886	0.758152	-0.601935	-0.250758	-0.019419	-0.405224	0.914011	-0.651788	-0.688090	-0.318910
725	344874													5.914626	-0.189646	7.447782	0.752965	-0.607064	-0.254002	-0.017802	-0.404636	0.914305	-0.657820	-0.683918	-0.315483
726	345040													6.327396	0.022454	7.358364	0.746222	-0.613661	-0.258016	-0.016071	-0.404082	0.914582	-0.665503	-0.678334	-0.311397
727	345207													6.492706	-0.205407	7.517077	0.738658	-0.621241	-0.261619	-0.014867	-0.403033	0.915065	-0.673917	-0.672030	-0.306940
728	345374													6.473338	-0.177229	7.590402	0.730240	-0.629541	-0.265384	-0.013594	-0.401759	0.915645	-0.683056	-0.665033	-0.301938
729	345540													6.442082	-0.115517	7.335320	0.721467	-0.638036	-0.269063	-0.012609	-0.400608	0.916163	-0.692334	-0.657589	-0.297070
730	345707													6.443801	-0.046601	7.194662	0.712244	-0.646829	-0.272620	-0.012016	-0.399563	0.916627	-0.701829	-0.649586	-0.292359
731	345874													6.735034	-0.153741	7.041086	0.702651	-0.655853	-0.275934	-0.011741	-0.398435	0.917122	-0.711438	-0.641176	-0.287661
732	346040													6.780748	-0.086634	6.999444	0.692705	-0.664825	-0.279585	-0.010987	-0.397338	0.917607	-0.721137	-0.632559	-0.282542
733	346207													6.956211	-0.015659	6.936043	0.682216	-0.674095	-0.283155	-0.010265	-0.396065	0.918165	-0.731078	-0.623481	-0.277121
734	346374													7.195471	-0.071549	6.706837	0.671679	-0.683141	-0.286644	-0.009563	-0.394879	0.918683	-0.740780	-0.614320	-0.271765
735	346540													7.242016	0.035007	6.606053	0.660939	-0.692287	-0.289651	-0.009283	-0.393488	0.919283	-0.750382	-0.604902	-0.266498
736	346707													7.400477	-0.029323	6.461056	0.649826	-0.701571	-0.292446	-0.009114	-0.391919	0.919954	-0.760029	-0.595144	-0.261074
737	346874													7.483956	-0.111162	6.299197	0.638275	-0.710870	-0.295411	-0.008793	-0.390454	0.920580	-0.769758	-0.584986	-0.255468
738	347040													7.603241	-0.061606	6.073057	0.626309	-0.719797	-0.299382	-0.007832	-0.389822	0.920857	-0.779536	-0.574396	-0.249786
739	347207													7.735466	-0.032177	5.939295	0.614168	-0.728524	-0.303398	-0.006736	-0.389274	0.921097	-0.789147	-0.563665	-0.243987
740	347374													7.775561	0.066280	5.980396	0.601694	-0.737267	-0.307248	-0.005646	-0.388588	0.921394	-0.798707	-0.552662	-0.237974
741	347540													7.890603	0.007693	5.753992	0.588807	-0.746207	-0.310615	-0.004759	-0.387489	0.921862	-0.808260	-0.541320	-0.231708
742	347707													8.064505	-0.064061	5.548842	0.575781	-0.754735	-0.314407	-0.003585	-0.386874	0.922126	-0.817596	-0.529815	-0.225461
743	347874													8.133171	-0.175660	5.453501	0.562735	-0.762743	-0.318673	-0.002001	-0.386761	0.922178	-0.826635	-0.518304	-0.219170
744	348040													8.162132	-0.081093	5.510727	0.549751	-0.770452	-0.322767	-0.000403	-0.386639	0.922231	-0.835329	-0.506867	-0.212866
745	348207													8.241526	0.002723	5.358069	0.537054	-0.777955	-0.326127	0.000802	-0.386142	0.922439	-0.843548	-0.495661	-0.206755
746	348374													8.372389	-0.098690	4.920168	0.524472	-0.784824	-0.330123	0.002280	-0.386433	0.922315	-0.851425	-0.484481	-0.200884
747	348540													8.369866	0.078708	4.899370	0.512139	-0.790926	-0.334887	0.003971	-0.387717	0.921770	-0.858894	-0.473404	-0.195424
748	348707													8.441016	0.162138	4.998778	0.500017	-0.796989	-0.338809	0.005177	-0.388469	0.921447	-0.866000	-0.462493	-0.190115
749	348874													8.561726	0.150086	5.028238	0.487987	-0.803354	-0.341308	0.005797	-0.388035	0.921626	-0.872831	-0.451720	-0.184699
750	349040													8.670375	0.018849	4.591605	0.476125	-0.809812	-0.342797	0.006062	-0.386786	0.922150	-0.879357	-0.441137	-0.179249
751	349207													8.807212	-0.008144	4.525496	0.464310	-0.815704	-0.345025	0.006859	-0.386239	0.922373	-0.885646	-0.430634	-0.173740
752	349374													8.873215	0.161572	4.564292	0.453304	-0.820964	-0.347179	0.007459	-0.385988	0.922474	-0.891325	-0.420751	-0.168846
753	349540													8.815461	0.075789	4.491787	0.442851	-0.825983	-0.348763	0.007686	-0.385474	0.922687	-0.896562	-0.411293	-0.164359
754	349707													8.929937	0.065277	4.337784	0.432684	-0.830952	-0.349718	0.007807	-0.384441	0.923117	-0.901512	-0.402148	-0.159854
755	349874													8.991276	0.053028	3.941524	0.422542	-0.835987	-0.350120	0.007756	-0.382950	0.923737	-0.906310	-0.393033	-0.155329
756	350040													8.967378	0.082317	3.944300	0.411920	-0.840688	-0.351519	0.007970	-0.382429	0.923951	-0.911185	-0.383396	-0.150830
757	350207													9.078891	0.048207	3.822149	0.401761	-0.844637	-0.353804	0.008468	-0.382913	0.923745	-0.915705	-0.374121	-0.146688
758	350374													9.115775	0.122080	3.896776	0.392297	-0.848445	-0.355309	0.008810	-0.382790	0.923793	-0.919797	-0.365531	-0.142692
759	350540													9.155232	0.217303	3.777146	0.383205	-0.852355	-0.355871	0.009082	-0.381787	0.924206	-0.923619	-0.357392	-0.138561
760	350707													9.290414	-0.075256	3.367562	0.374330	-0.856007	-0.356552	0.009112	-0.381094	0.924492	-0.927251	-0.349314	-0.134855
761	350874													9.262113	0.097124	3.474625	0.365511	-0.859277	-0.357834	0.009270	-0.381054	0.924506	-0.930761	-0.341234	-0.131314
762	351040													9.209423	0.182404	3.452085	0.357119	-0.862243	-0.359170	0.009565	-0.381130	0.924472	-0.934010	-0.333582	-0.127861
763	351207													9.215267	0.173750	3.475379	0.349047	-0.865356	-0.359618	0.009803	-0.380361	0.924786	-0.937054	-0.326320	-0.124281
764	351374													9.215529	0.104003	3.222377	0.341141	-0.868495	-0.359638	0.009964	-0.379226	0.925250	-0.939959	-0.319224	-0.120715
765	351540													9.240049	0.049142	3.179818	0.333534	-0.871250	-0.360108	0.010502	-0.378523	0.925532	-0.942679	-0.312479	-0.117101
766	351707													9.300691	0.129119	3.142750	0.326019	-0.873316	-0.361981	0.011081	-0.379346	0.925189	-0.945298	-0.305641	-0.113997
767	351874													9.346944	0.178794	3.221705	0.319060	-0.875390	-0.363172	0.011490	-0.379599	0.925080	-0.947665	-0.299329	-0.111057
768	352040													9.400743	0.103188	3.132080	0.312288	-0.877512	-0.363934	0.011737	-0.379500	0.925117	-0.949915	-0.293175	-0.108214
769	352207													9.460693	0.010043	2.955649	0.305967	-0.879423	-0.364690	0.012031	-0.379458	0.925131	-0.951966	-0.287447	-0.105521
770	352374													9.235377	-0.004818	2.948740	0.299217	-0.881375	-0.365578	0.012418	-0.379502	0.925108	-0.954104	-0.281348	-0.102609
771	352540													9.419819	0.138622	2.895710	0.291696	-0.883302	-0.367002	0.013019	-0.379987	0.924900	-0.956422	-0.274568	-0.099341
772	352707													9.509829	0.256048	2.869400	0.285162	-0.885095	-0.367817	0.013411	-0.380028	0.924878	-0.958385	-0.268673	-0.096500
773	352874													9.481157	0.179047	2.832441	0.279308	-0.886761	-0.368297	0.013674	-0.379850	0.924947	-0.960104	-0.263381	-0.093970
774	353040													9.432072	0.100113	2.622560	0.273887	-0.888100	-0.369141	0.014037	-0.380085	0.924845	-0.961659	-0.258485	-0.091634
775	353207													9.371153	-0.037088	2.409664	0.268232	-0.889139	-0.370788	0.014434	-0.381141	0.924404	-0.963246	-0.253307	-0.089401
776	353374													9.422801	0.129801	2.567433	0.262012	-0.889818	-0.373595	0.015270	-0.383248	0.923519	-0.964944	-0.247678	-0.086828
777	353540													9.573757	0.261216	2.555359	0.256218	-0.890748	-0.375394	0.015996	-0.384397	0.923029	-0.966487	-0.242501	-0.084241
778	353707													9.614007	0.183667	2.490321	0.250927	-0.891785	-0.376503	0.016472	-0.384957	0.922788	-0.967866	-0.237755	-0.081907
779	353874													9.541328	0.109904	2.309693	0.245619	-0.892556	-0.378173	0.016725	-0.386164	0.922278	-0.969222	-0.232854	-0.079922
780	354040													9.423826	0.170054	2.346248	0.239625	-0.893254	-0.380365	0.016807	-0.387904	0.921546	-0.970720	-0.227219	-0.077938
781	354207													9.563286	0.287605	2.177669	0.233655	-0.894238	-0.381764	0.017113	-0.388790	0.921168	-0.972169	-0.221768	-0.075540
782	354374													9.610792	0.244328	2.228141	0.228612	-0.895228	-0.382497	0.017457	-0.389069	0.921043	-0.973361	-0.217239	-0.073318
783	354540													9.587051	0.218079	2.343926	0.224022	-0.896355	-0.382573	0.017783	-0.388725	0.921182	-0.974422	-0.213168	-0.071142
784	354707													9.600252	0.209829	2.352009	0.219880	-0.897351	-0.382641	0.017945	-0.388453	0.921294	-0.975362	-0.209440	-0.069310
785	354874													9.669504	0.174685	2.234927	0.216168	-0.898186	-0.382796	0.017881	-0.388359	0.921335	-0.976192	-0.206008	-0.067890
786	355040													9.521274	0.218455	2.290041	0.212658	-0.898949	-0.382971	0.017769	-0.388313	0.921356	-0.976965	-0.202739	-0.066605
787	355207													9.586074	0.286018	2.019315	0.208356	-0.899948	-0.382989	0.017730	-0.388044	0.921470	-0.977892	-0.198784	-0.064895
788	355374													9.804227	0.335917	1.853202	0.204878	-0.900639	-0.383242	0.017414	-0.388131	0.921439	-0.978633	-0.195456	-0.063836
789	355540													9.738954	0.259889	1.920808	0.201958	-0.901453	-0.382879	0.017066	-0.387636	0.921655	-0.979246	-0.192669	-0.062902
790	355707													9.844700	0.170832	1.814547	0.200183	-0.902266	-0.381895	0.016942	-0.386538	0.922118	-0.979612	-0.191063	-0.062092
791	355874													9.716020	0.166495	1.782715	0.199522	-0.903032	-0.380426	0.016802	-0.385023	0.922754	-0.979749	-0.190501	-0.061648
792	356040													9.617680	0.177107	1.741992	0.199297	-0.903969	-0.378314	0.016319	-0.382943	0.923628	-0.979803	-0.190250	-0.061568
793	356207													9.619465	0.196797	1.711484	0.198593	-0.904721	-0.376884	0.015586	-0.381579	0.924205	-0.979958	-0.189414	-0.061678
794	356374													9.726604	0.191669	1.698385	0.197813	-0.905236	-0.376054	0.014756	-0.380842	0.924523	-0.980129	-0.188432	-0.061977
795	356541													9.688996	0.131365	1.749862	0.196890	-0.905648	-0.375547	0.014013	-0.380406	0.924713	-0.980325	-0.187330	-0.062207
796	356707													9.668784	0.076614	1.777431	0.195830	-0.905873	-0.375558	0.013590	-0.380429	0.924710	-0.980544	-0.186190	-0.062188
797	356874													9.626101	0.110002	1.936259	0.194688	-0.905861	-0.376182	0.013207	-0.381065	0.924454	-0.980776	-0.184949	-0.062225
798	357041													9.592277	0.164653	2.052779	0.192939	-0.905948	-0.376872	0.012739	-0.381744	0.924180	-0.981128	-0.183112	-0.062113
799	357207													9.572967	0.191463	2.090605	0.190555	-0.906437	-0.376910	0.012072	-0.381753	0.924186	-0.981602	-0.180658	-0.061803
800	357374													9.552585	0.130957	1.990558	0.187428	-0.907151	-0.376760	0.011495	-0.381505	0.924295	-0.982211	-0.177570	-0.061077
801	357541													9.646391	0.050008	1.930333	0.184092	-0.907633	-0.377243	0.011124	-0.381855	0.924155	-0.982846	-0.174326	-0.060200
802	357707													9.585625	0.067554	2.016229	0.180606	-0.908065	-0.377889	0.010988	-0.382320	0.923965	-0.983494	-0.171026	-0.059072
803	357874													9.631801	0.071530	1.860438	0.176871	-0.908445	-0.378741	0.010888	-0.382978	0.923693	-0.984174	-0.167498	-0.057847
804	358041													9.739598	0.148992	1.764466	0.173571	-0.908611	-0.379866	0.010897	-0.383925	0.923300	-0.984761	-0.164398	-0.056738
805	358207													9.831937	0.172157	1.729801	0.170824	-0.908676	-0.380955	0.011049	-0.384847	0.922914	-0.985240	-0.161865	-0.055701
806	358374													9.780915	0.148422	1.748477	0.168726	-0.908692	-0.381851	0.010923	-0.385658	0.922577	-0.985602	-0.159834	-0.055145
807	358541													9.692833	0.100842	1.736264	0.166693	-0.908867	-0.382328	0.010766	-0.386052	0.922414	-0.985950	-0.157876	-0.054567
808	358707													9.732111	0.091766	1.612225	0.165088	-0.909010	-0.382683	0.010870	-0.386307	0.922306	-0.986219	-0.156422	-0.053893
809	358874													9.714585	0.105995	1.527726	0.163940	-0.909095	-0.382974	0.010924	-0.386530	0.922212	-0.986410	-0.155371	-0.053437
810	359041													9.713553	0.038100	1.527780	0.162898	-0.909154	-0.383278	0.011180	-0.386741	0.922120	-0.986579	-0.154497	-0.052835
811	359207													9.723869	0.001639	1.558058	0.161608	-0.909183	-0.383758	0.011645	-0.387085	0.921970	-0.986786	-0.153467	-0.051969
812	359374													9.791495	0.076120	1.533450	0.160374	-0.909056	-0.384575	0.012071	-0.387783	0.921672	-0.986983	-0.152454	-0.051217
813	359541													9.800068	0.118428	1.460527	0.159444	-0.908777	-0.385618	0.012431	-0.388736	0.921265	-0.987129	-0.151684	-0.050685
814	359707													9.759580	0.104309	1.450507	0.158769	-0.908367	-0.386862	0.012701	-0.389920	0.920761	-0.987234	-0.151102	-0.050370
815	359874													9.797650	0.114351	1.421515	0.158294	-0.908066	-0.387761	0.012943	-0.390770	0.920397	-0.987307	-0.150712	-0.050104
816	360041													9.763006	0.147750	1.459677	0.158081	-0.907802	-0.388465	0.013271	-0.391423	0.920115	-0.987337	-0.150608	-0.049829
817	360207													9.781846	0.171626	1.442360	0.158168	-0.907535	-0.389054	0.013615	-0.391972	0.919877	-0.987318	-0.150792	-0.049641
818	360374													9.796712	0.180932	1.451700	0.158665	-0.907254	-0.389507	0.013860	-0.392419	0.919682	-0.987235	-0.151320	-0.049688
819	360541													9.774749	0.163246	1.492515	0.159700	-0.906855	-0.390013	0.013912	-0.392977	0.919443	-0.987068	-0.152261	-0.050142
820	360707													9.707987	0.114014	1.469880	0.160973	-0.906526	-0.390254	0.013902	-0.393289	0.919310	-0.986861	-0.153409	-0.050707
821	360874													9.698984	0.098395	1.461734	0.162364	-0.906152	-0.390547	0.013980	-0.393647	0.919155	-0.986632	-0.154697	-0.051246
822	361041													9.740704	0.146591	1.506937	0.163873	-0.905819	-0.390689	0.014279	-0.393823	0.919075	-0.986378	-0.156191	-0.051603
823	361207													9.757075	0.171407	1.548761	0.165568	-0.905472	-0.390780	0.014470	-0.393975	0.919007	-0.986092	-0.157812	-0.052128
824	361374													9.772950	0.147123	1.586781	0.167485	-0.905074	-0.390883	0.014575	-0.394167	0.918923	-0.985767	-0.159603	-0.052826
825	361541													9.733440	0.094021	1.641697	0.169740	-0.904533	-0.391163	0.014665	-0.394560	0.918753	-0.985380	-0.161685	-0.053707
826	361707													9.693629	0.075848	1.726253	0.172367	-0.903955	-0.391350	0.014944	-0.394851	0.918624	-0.984919	-0.164189	-0.054550
827	361874													9.669474	0.080518	1.751965	0.175230	-0.903301	-0.391588	0.015506	-0.395161	0.918481	-0.984405	-0.167018	-0.055238
828	362041													9.682842	0.125297	1.817267	0.178042	-0.902552	-0.392047	0.016238	-0.395663	0.918252	-0.983889	-0.169853	-0.055789
829	362207													9.696653	0.153708	1.796831	0.180702	-0.901686	-0.392821	0.016982	-0.396476	0.917888	-0.983391	-0.172535	-0.056332
830	362374													9.688725	0.166061	1.824230	0.183416	-0.900659	-0.393918	0.017716	-0.397623	0.917378	-0.982876	-0.175240	-0.056975
831	362541													9.717028	0.197950	1.821041	0.186278	-0.899572	-0.395058	0.018453	-0.398821	0.916843	-0.982324	-0.178078	-0.057692
832	362707													9.695848	0.210400	1.878810	0.189328	-0.898578	-0.395870	0.019185	-0.399699	0.916446	-0.981727	-0.181103	-0.058435
833	362874													9.704350	0.202937	1.893748	0.192506	-0.897650	-0.396443	0.019948	-0.400336	0.916151	-0.981093	-0.184272	-0.059160
834	363041													9.746846	0.252385	1.927405	0.195820	-0.896744	-0.396870	0.020656	-0.400843	0.915914	-0.980422	-0.187552	-0.059970
835	363207													9.690219	0.248539	1.933982	0.199213	-0.895964	-0.396942	0.021160	-0.401033	0.915819	-0.979728	-0.190842	-0.060933
836	363374													9.656733	0.260748	1.901999	0.202611	-0.895345	-0.396618	0.021512	-0.400851	0.915891	-0.979023	-0.194101	-0.061956
837	363541													9.629423	0.244478	1.896129	0.206076	-0.894401	-0.396964	0.021843	-0.401366	0.915657	-0.978292	-0.197366	-0.063175
838	363707													9.585507	0.225783	2.004521	0.209291	-0.893498	-0.397314	0.022103	-0.401886	0.915423	-0.977604	-0.200372	-0.064363
839	363874													9.679882	0.235045	1.976596	0.212561	-0.892664	-0.397453	0.022443	-0.402180	0.915285	-0.976890	-0.203474	-0.065453
840	364041													9.708467	0.262225	2.048206	0.216343	-0.892009	-0.396882	0.022588	-0.401827	0.915437	-0.976056	-0.207014	-0.066784
841	364207													9.646394	0.278491	2.120289	0.220536	-0.891429	-0.395876	0.022760	-0.401056	0.915771	-0.975113	-0.210970	-0.068158
842	364374													9.648039	0.262632	2.162872	0.224959	-0.890856	-0.394675	0.022895	-0.400112	0.916180	-0.974099	-0.215139	-0.069613
843	364541													9.666840	0.325275	2.124604	0.229772	-0.890151	-0.393492	0.022755	-0.399286	0.916544	-0.972979	-0.219550	-0.071490
844	364707													9.553027	0.273774	2.232121	0.234994	-0.888855	-0.393338	0.022298	-0.399634	0.916404	-0.971741	-0.224120	-0.074091
845	364874													9.310138	0.097627	2.098633	0.239303	-0.887275	-0.394306	0.022082	-0.401026	0.915800	-0.970694	-0.227861	-0.076374
846	365041													9.617930	0.129677	2.006434	0.243512	-0.885527	-0.395657	0.022146	-0.402754	0.915040	-0.969645	-0.231585	-0.078464
847	365207													9.648833	0.240113	2.216394	0.248417	-0.883547	-0.397030	0.022389	-0.404532	0.914250	-0.968394	-0.236004	-0.080711
848	365374													9.503241	0.254846	2.285668	0.253498	-0.881672	-0.397987	0.022514	-0.405937	0.913624	-0.967074	-0.240562	-0.083054
849	365541													9.534241	0.258001	2.359197	0.259154	-0.879960	-0.398132	0.022475	-0.406609	0.913326	-0.965574	-0.245640	-0.085598
850	365707													9.532882	0.268009	2.613034	0.265415	-0.878386	-0.397484	0.022580	-0.406494	0.913374	-0.963870	-0.251399	-0.088056
851	365874													9.507502	0.325983	2.810705	0.271957	-0.877073	-0.395958	0.022645	-0.405520	0.913806	-0.962043	-0.257482	-0.090423
852	366041													9.483136	0.241194	2.925740	0.278378	-0.875951	-0.393974	0.022374	-0.404163	0.914413	-0.960211	-0.263368	-0.092912
853	366207													9.409247	0.173495	3.016055	0.284541	-0.874899	-0.391902	0.022074	-0.402713	0.915060	-0.958410	-0.269023	-0.095276
854	366374													9.350369	0.212503	3.149755	0.290888	-0.873656	-0.390013	0.021907	-0.401451	0.915618	-0.956506	-0.274887	-0.097638
855	366541													9.381689	0.315676	3.228115	0.297509	-0.872518	-0.387558	0.021646	-0.399671	0.916403	-0.954474	-0.281027	-0.100019
856	366707													9.386808	0.294748	3.211167	0.304937	-0.871499	-0.384060	0.021034	-0.397005	0.917575	-0.952140	-0.287881	-0.102730
857	366874													9.306355	0.210978	3.282974	0.313095	-0.870398	-0.379971	0.020394	-0.393833	0.918956	-0.949503	-0.295469	-0.105556
858	367041													9.196998	0.197989	3.042237	0.321524	-0.869594	-0.374737	0.019549	-0.389571	0.920789	-0.946700	-0.303382	-0.108256
859	367207													9.352478	0.151493	2.610967	0.329759	-0.868574	-0.369915	0.018722	-0.385739	0.922418	-0.943879	-0.311101	-0.110940
860	367374													9.648527	0.338150	2.765007	0.339339	-0.866591	-0.365883	0.017780	-0.382984	0.923584	-0.940496	-0.319913	-0.114553
861	367541													9.222993	0.239234	3.273251	0.349292	-0.864202	-0.362146	0.016721	-0.380679	0.924556	-0.936865	-0.328996	-0.118518
862	367707													9.127013	0.103860	3.299026	0.357973	-0.862321	-0.358131	0.016025	-0.377818	0.925741	-0.933595	-0.337129	-0.121430
863	367874													9.341239	0.138245	3.553545	0.366356	-0.860190	-0.354762	0.015776	-0.375473	0.926699	-0.930341	-0.345099	-0.123987
864	368041													9.306549	0.115702	3.633204	0.374882	-0.857832	-0.351550	0.015599	-0.373314	0.927574	-0.926941	-0.353214	-0.126567
865	368207													9.154301	0.101398	3.624992	0.383630	-0.855096	-0.348769	0.015501	-0.371649	0.928244	-0.923357	-0.361508	-0.129321
866	368374													9.060829	0.117892	3.790760	0.392603	-0.851997	-0.346359	0.015406	-0.370451	0.928724	-0.919579	-0.369956	-0.132315
867	368541													8.937602	0.188363	4.099333	0.401438	-0.848823	-0.344017	0.015301	-0.369343	0.929167	-0.915758	-0.378267	-0.135280
868	368707													8.972970	0.197222	3.708746	0.410029	-0.845879	-0.341123	0.015183	-0.367627	0.929850	-0.911946	-0.386445	-0.137895
869	368874													9.095521	0.093073	3.741678	0.419828	-0.841831	-0.339213	0.015345	-0.367108	0.930052	-0.907474	-0.395667	-0.141205
870	369041													8.920891	0.198414	4.309381	0.429967	-0.837344	-0.337614	0.015537	-0.367026	0.930081	-0.902711	-0.405149	-0.144799
