// Start Time: Unknown
// Update Rate: 60.0Hz
//Filter Profile: human (46.1)
// Option Flags: AHS Disabled ICC Disabled
// Firmware Version: 4.0.2
0	sampleTimeFine	Year	Month	Day	Second	UTC_Nano	UTC_Year	UTC_Month	UTC_Day	UTC_Hour	UTC_Minute	UTC_Second	UTC_Valid	Acc_X	Acc_Y	Acc_Z	Mat[1][1]	Mat[2][1]	Mat[3][1]	Mat[1][2]	Mat[2][2]	Mat[3][2]	Mat[1][3]	Mat[2][3]	Mat[3][3]
0	223871													0.000000	0.000000	0.000000	-0.174644	-0.892376	0.416130	0.006539	0.421565	0.906775	-0.984610	0.161084	-0.067788
1	224038													9.588767	0.072622	-1.694446	-0.174398	-0.892983	0.414929	0.006499	0.420334	0.907346	-0.984654	0.160936	-0.067502
2	224205													9.591938	0.087331	-1.690257	-0.174307	-0.893095	0.414727	0.006646	0.420098	0.907454	-0.984669	0.160932	-0.067291
3	224371													9.588745	0.103052	-1.678228	-0.174220	-0.893533	0.413819	0.007027	0.419107	0.907910	-0.984682	0.161084	-0.066738
4	224538													9.576926	0.120028	-1.691038	-0.174072	-0.893456	0.414047	0.007531	0.419246	0.907841	-0.984704	0.161148	-0.066250
5	224705													9.588867	0.115293	-1.699736	-0.174080	-0.893402	0.414160	0.008106	0.419267	0.907827	-0.984698	0.161392	-0.065744
6	224871													9.609276	0.103538	-1.682845	-0.174177	-0.893391	0.414144	0.008499	0.419194	0.907857	-0.984678	0.161648	-0.065421
7	225038													9.605900	0.089366	-1.689222	-0.174213	-0.893385	0.414142	0.008728	0.419156	0.907872	-0.984669	0.161778	-0.065225
8	225205													9.589997	0.071306	-1.694972	-0.174196	-0.893459	0.413988	0.008803	0.418986	0.907950	-0.984672	0.161805	-0.065120
9	225371													9.607348	0.066210	-1.694968	-0.174218	-0.893545	0.413795	0.008752	0.418799	0.908037	-0.984668	0.161818	-0.065142
10	225538													9.589740	0.035891	-1.703687	-0.174220	-0.893715	0.413425	0.008633	0.418444	0.908202	-0.984669	0.161796	-0.065185
11	225705													9.545481	0.023204	-1.708312	-0.174290	-0.893875	0.413051	0.008354	0.418114	0.908356	-0.984659	0.161768	-0.065406
12	225871													9.558820	0.048103	-1.715343	-0.174496	-0.893930	0.412844	0.008018	0.417973	0.908424	-0.984625	0.161826	-0.065767
13	226038													9.654125	0.150617	-1.730988	-0.174704	-0.893995	0.412616	0.007933	0.417769	0.908519	-0.984589	0.161995	-0.065894
14	226205													9.706939	0.111545	-1.731735	-0.174714	-0.893922	0.412769	0.008068	0.417903	0.908456	-0.984586	0.162050	-0.065801
15	226371													9.671096	0.086096	-1.726491	-0.174503	-0.893973	0.412748	0.008068	0.417867	0.908472	-0.984624	0.161861	-0.065706
16	226538													9.627856	0.126741	-1.686828	-0.174147	-0.894001	0.412838	0.007854	0.417970	0.908427	-0.984688	0.161442	-0.065767
17	226705													9.607820	0.112377	-1.689921	-0.173732	-0.894019	0.412974	0.007668	0.418110	0.908364	-0.984763	0.160978	-0.065784
18	226871													9.576363	0.057991	-1.657446	-0.173332	-0.894010	0.413161	0.007516	0.418298	0.908279	-0.984835	0.160539	-0.065785
19	227038													9.557640	0.027739	-1.649688	-0.173011	-0.894082	0.413140	0.007341	0.418284	0.908287	-0.984893	0.160176	-0.065804
20	227205													9.556455	0.051653	-1.655782	-0.172790	-0.894122	0.413146	0.007121	0.418310	0.908276	-0.984933	0.159883	-0.065913
21	227371													9.556527	0.053454	-1.650588	-0.172666	-0.894200	0.413028	0.006882	0.418221	0.908319	-0.984956	0.159678	-0.066059
22	227538													9.575488	0.049836	-1.661982	-0.172659	-0.894141	0.413159	0.006596	0.418400	0.908239	-0.984960	0.159541	-0.066342
23	227705													9.594347	0.091107	-1.659356	-0.172700	-0.894280	0.412841	0.006315	0.418125	0.908368	-0.984954	0.159482	-0.066563
24	227871													9.622281	0.087033	-1.660782	-0.172708	-0.894316	0.412760	0.006081	0.418081	0.908389	-0.984954	0.159396	-0.066768
25	228038													9.641661	0.089776	-1.655816	-0.172692	-0.894350	0.412693	0.005828	0.418053	0.908404	-0.984959	0.159279	-0.066982
26	228205													9.613370	0.092223	-1.652244	-0.172642	-0.894321	0.412776	0.005565	0.418176	0.908349	-0.984969	0.159117	-0.067218
27	228371													9.558940	0.078005	-1.645080	-0.172662	-0.894335	0.412738	0.005300	0.418182	0.908348	-0.984967	0.159024	-0.067464
28	228538													9.542887	0.056602	-1.653476	-0.172784	-0.894247	0.412879	0.005013	0.418380	0.908258	-0.984947	0.159002	-0.067806
29	228705													9.570266	0.089968	-1.651302	-0.172994	-0.894155	0.412989	0.004757	0.418548	0.908182	-0.984911	0.159074	-0.068153
30	228871													9.584476	0.079392	-1.676411	-0.173240	-0.894064	0.413082	0.004618	0.418682	0.908121	-0.984869	0.159231	-0.068404
31	229038													9.614181	0.062752	-1.677883	-0.173482	-0.893948	0.413231	0.004580	0.418857	0.908041	-0.984826	0.159421	-0.068570
32	229205													9.658384	0.030662	-1.647212	-0.173625	-0.893857	0.413369	0.004528	0.419015	0.907968	-0.984801	0.159518	-0.068704
33	229371													9.649175	0.034736	-1.684969	-0.173669	-0.893836	0.413396	0.004420	0.419064	0.907946	-0.984794	0.159509	-0.068827
34	229538													9.613636	0.032998	-1.659825	-0.173655	-0.893878	0.413311	0.004275	0.419000	0.907976	-0.984797	0.159441	-0.068940
35	229705													9.601097	0.047817	-1.689143	-0.173596	-0.893907	0.413273	0.004173	0.418973	0.907989	-0.984808	0.159348	-0.069001
36	229871													9.586864	0.066525	-1.629423	-0.173542	-0.894101	0.412876	0.004117	0.418575	0.908173	-0.984818	0.159306	-0.068959
37	230038													9.581078	0.068009	-1.650992	-0.173552	-0.894173	0.412715	0.004027	0.418427	0.908242	-0.984817	0.159289	-0.069018
38	230205													9.589686	0.088358	-1.656747	-0.173615	-0.894188	0.412658	0.003868	0.418399	0.908255	-0.984806	0.159283	-0.069181
39	230371													9.583634	0.108555	-1.662980	-0.173763	-0.894204	0.412561	0.003658	0.418345	0.908281	-0.984781	0.159335	-0.069422
40	230538													9.598919	0.079526	-1.650102	-0.173948	-0.894175	0.412545	0.003433	0.418379	0.908266	-0.984749	0.159407	-0.069706
41	230705													9.582989	0.047127	-1.666520	-0.174167	-0.894123	0.412565	0.003164	0.418458	0.908231	-0.984711	0.159489	-0.070052
42	230871													9.576904	0.026983	-1.681589	-0.174445	-0.894085	0.412531	0.002858	0.418493	0.908215	-0.984663	0.159612	-0.070448
43	231038													9.561695	0.011046	-1.662060	-0.174773	-0.894108	0.412341	0.002546	0.418375	0.908271	-0.984606	0.159791	-0.070844
44	231205													9.589903	0.039486	-1.695335	-0.175138	-0.894151	0.412094	0.002345	0.418183	0.908360	-0.984541	0.160054	-0.071142
45	231371													9.611431	0.056373	-1.713986	-0.175458	-0.894181	0.411891	0.002251	0.418016	0.908437	-0.984484	0.160320	-0.071332
46	231538													9.612567	0.060472	-1.695113	-0.175730	-0.894174	0.411791	0.002194	0.417944	0.908470	-0.984436	0.160549	-0.071483
47	231705													9.586014	0.076746	-1.704995	-0.175962	-0.894236	0.411557	0.002097	0.417739	0.908565	-0.984395	0.160736	-0.071632
48	231871													9.608924	0.064627	-1.732965	-0.176256	-0.894276	0.411344	0.001956	0.417567	0.908644	-0.984342	0.160958	-0.071849
49	232038													9.576270	0.043231	-1.730171	-0.176494	-0.894199	0.411411	0.001801	0.417678	0.908593	-0.984300	0.161103	-0.072107
50	232205													9.528052	-0.002166	-1.721035	-0.176821	-0.894202	0.411264	0.001527	0.417598	0.908631	-0.984242	0.161293	-0.072474
51	232371													9.547421	-0.016926	-1.745429	-0.177280	-0.894197	0.411077	0.001241	0.417489	0.908681	-0.984160	0.161602	-0.072903
52	232538													9.629387	0.084241	-1.747804	-0.177786	-0.894173	0.410911	0.001199	0.417366	0.908738	-0.984068	0.162053	-0.073130
53	232705													9.674520	0.080482	-1.744060	-0.178109	-0.894067	0.411001	0.001388	0.417451	0.908699	-0.984010	0.162418	-0.073110
54	232871													9.649127	0.053905	-1.741117	-0.178312	-0.893946	0.411176	0.001528	0.417621	0.908620	-0.983973	0.162646	-0.073101
55	233038													9.619543	0.075433	-1.715796	-0.178376	-0.893937	0.411168	0.001526	0.417618	0.908622	-0.983961	0.162703	-0.073128
56	233205													9.590775	0.072649	-1.728298	-0.178367	-0.893857	0.411345	0.001564	0.417790	0.908542	-0.983963	0.162698	-0.073122
57	233371													9.589730	0.031316	-1.718585	-0.178346	-0.893713	0.411667	0.001657	0.418101	0.908399	-0.983966	0.162692	-0.073086
58	233538													9.547071	0.003229	-1.726428	-0.178381	-0.893585	0.411929	0.001705	0.418362	0.908279	-0.983960	0.162722	-0.073104
59	233705													9.536983	-0.002096	-1.713479	-0.178516	-0.893448	0.412167	0.001738	0.418609	0.908165	-0.983935	0.162838	-0.073176
60	233871													9.546506	0.021276	-1.726613	-0.178749	-0.893390	0.412194	0.001755	0.418651	0.908145	-0.983893	0.163053	-0.073266
61	234038													9.589649	0.021589	-1.746194	-0.179066	-0.893319	0.412209	0.001725	0.418695	0.908125	-0.983835	0.163326	-0.073433
62	234205													9.598707	0.052387	-1.774502	-0.179384	-0.893271	0.412174	0.001678	0.418692	0.908127	-0.983778	0.163596	-0.073608
63	234371													9.630901	0.057755	-1.729114	-0.179679	-0.893250	0.412093	0.001649	0.418637	0.908152	-0.983724	0.163855	-0.073747
64	234538													9.618171	0.076861	-1.747511	-0.179917	-0.893287	0.411908	0.001627	0.418470	0.908229	-0.983680	0.164076	-0.073837
65	234705													9.608915	0.079141	-1.741709	-0.180078	-0.893300	0.411811	0.001597	0.418388	0.908267	-0.983651	0.164216	-0.073915
66	234871													9.515165	0.067301	-1.743190	-0.180279	-0.893259	0.411810	0.001617	0.418400	0.908261	-0.983614	0.164406	-0.073985
67	235038													9.545334	0.066878	-1.764997	-0.180588	-0.893160	0.411891	0.001570	0.418514	0.908209	-0.983558	0.164658	-0.074176
68	235205													9.549820	0.078958	-1.763535	-0.180940	-0.893110	0.411843	0.001553	0.418495	0.908218	-0.983493	0.164973	-0.074336
69	235371													9.577506	0.096152	-1.783332	-0.181296	-0.892949	0.412036	0.001652	0.418702	0.908122	-0.983427	0.165319	-0.074434
70	235538													9.610154	0.085635	-1.767102	-0.181607	-0.892825	0.412167	0.001819	0.418831	0.908062	-0.983370	0.165660	-0.074438
71	235705													9.632235	0.085666	-1.782230	-0.181827	-0.892692	0.412360	0.001941	0.419023	0.907973	-0.983329	0.165894	-0.074457
72	235871													9.635497	0.077954	-1.776309	-0.181960	-0.892617	0.412463	0.001997	0.419129	0.907925	-0.983304	0.166029	-0.074482
73	236038													9.619143	0.081530	-1.793354	-0.181957	-0.892529	0.412654	0.002011	0.419321	0.907836	-0.983305	0.166016	-0.074504
74	236205													9.586041	0.054473	-1.764976	-0.181874	-0.892474	0.412809	0.002052	0.419466	0.907769	-0.983320	0.165947	-0.074458
75	236371													9.552650	0.034786	-1.750843	-0.181777	-0.892419	0.412972	0.002130	0.419611	0.907702	-0.983337	0.165879	-0.074375
76	236538													9.524702	0.064475	-1.758807	-0.181736	-0.892367	0.413103	0.002254	0.419720	0.907651	-0.983345	0.165884	-0.074267
77	236705													9.531779	0.080154	-1.760717	-0.181808	-0.892389	0.413022	0.002393	0.419620	0.907697	-0.983331	0.166015	-0.074155
78	236871													9.570618	0.099862	-1.774775	-0.181954	-0.892288	0.413176	0.002487	0.419771	0.907626	-0.983304	0.166174	-0.074159
79	237038													9.593072	0.116577	-1.752767	-0.182153	-0.892183	0.413316	0.002583	0.419913	0.907561	-0.983267	0.166382	-0.074184
80	237205													9.605263	0.101372	-1.744484	-0.182304	-0.892144	0.413333	0.002627	0.419934	0.907551	-0.983239	0.166536	-0.074212
81	237371													9.602613	0.087073	-1.776620	-0.182447	-0.892085	0.413397	0.002566	0.420020	0.907511	-0.983212	0.166634	-0.074342
82	237538													9.574086	0.061790	-1.763070	-0.182563	-0.892030	0.413465	0.002452	0.420118	0.907466	-0.983191	0.166684	-0.074511
83	237705													9.569163	0.066812	-1.782235	-0.182695	-0.892036	0.413394	0.002300	0.420082	0.907483	-0.983167	0.166744	-0.074696
84	237871													9.557228	0.074471	-1.789963	-0.182861	-0.892006	0.413385	0.002222	0.420098	0.907476	-0.983136	0.166860	-0.074838
85	238038													9.564208	0.093453	-1.771803	-0.182984	-0.891983	0.413381	0.002264	0.420097	0.907476	-0.983113	0.166990	-0.074852
86	238205													9.584357	0.120271	-1.778208	-0.183102	-0.891928	0.413446	0.002307	0.420165	0.907445	-0.983091	0.167108	-0.074875
87	238371													9.597807	0.129305	-1.784059	-0.183171	-0.891882	0.413516	0.002349	0.420234	0.907413	-0.983078	0.167183	-0.074879
88	238538													9.594028	0.132069	-1.776624	-0.183202	-0.891864	0.413541	0.002293	0.420272	0.907395	-0.983073	0.167185	-0.074950
89	238705													9.572550	0.115015	-1.776559	-0.183256	-0.891805	0.413643	0.002156	0.420403	0.907335	-0.983063	0.167166	-0.075119
90	238871													9.595690	0.083547	-1.769575	-0.183274	-0.891705	0.413851	0.002064	0.420632	0.907229	-0.983060	0.167126	-0.075250
91	239038													9.550251	0.019948	-1.783190	-0.183325	-0.891642	0.413965	0.001919	0.420776	0.907162	-0.983051	0.167100	-0.075427
92	239205													9.492999	-0.001070	-1.800703	-0.183511	-0.891614	0.413942	0.001665	0.420811	0.907147	-0.983016	0.167161	-0.075739
93	239371													9.571173	0.077654	-1.815208	-0.183792	-0.891661	0.413717	0.001540	0.420625	0.907233	-0.982964	0.167380	-0.075934
94	239538													9.663486	0.163045	-1.811992	-0.183973	-0.891616	0.413734	0.001728	0.420624	0.907233	-0.982930	0.167621	-0.075843
95	239705													9.639171	0.123022	-1.814417	-0.184000	-0.891570	0.413820	0.001959	0.420675	0.907209	-0.982924	0.167737	-0.075657
96	239872													9.620338	0.120046	-1.810544	-0.183887	-0.891548	0.413917	0.001992	0.420759	0.907170	-0.982945	0.167641	-0.075596
97	240038													9.595401	0.145886	-1.789314	-0.183611	-0.891447	0.414258	0.001926	0.421096	0.907014	-0.982997	0.167335	-0.075601
98	240205													9.562243	0.103787	-1.781311	-0.183292	-0.891310	0.414692	0.001825	0.421530	0.906813	-0.983057	0.166968	-0.075636
99	240372													9.562934	0.056077	-1.767799	-0.182957	-0.891274	0.414919	0.001697	0.421756	0.906708	-0.983119	0.166592	-0.075651
100	240538													9.535471	0.055750	-1.770480	-0.182663	-0.891292	0.415010	0.001547	0.421851	0.906664	-0.983174	0.166256	-0.075678
101	240705													9.534502	0.044312	-1.779481	-0.182469	-0.891264	0.415154	0.001350	0.422015	0.906588	-0.983211	0.165985	-0.075801
102	240872													9.557657	0.061619	-1.765886	-0.182349	-0.891404	0.414906	0.001133	0.421790	0.906693	-0.983233	0.165804	-0.075903
103	241038													9.582038	0.082503	-1.770176	-0.182246	-0.891517	0.414709	0.000939	0.421614	0.906775	-0.983253	0.165645	-0.076000
104	241205													9.603734	0.093492	-1.768646	-0.182159	-0.891583	0.414606	0.000784	0.421529	0.906815	-0.983269	0.165509	-0.076086
105	241372													9.614381	0.103236	-1.780876	-0.182020	-0.891626	0.414574	0.000650	0.421508	0.906825	-0.983295	0.165330	-0.076143
106	241538													9.606894	0.099787	-1.783197	-0.181888	-0.891639	0.414605	0.000556	0.421545	0.906807	-0.983319	0.165168	-0.076178
107	241705													9.531362	0.109171	-1.742840	-0.181686	-0.891740	0.414475	0.000493	0.421408	0.906871	-0.983356	0.164970	-0.076125
108	241872													9.521864	0.096486	-1.756901	-0.181611	-0.891778	0.414426	0.000343	0.421377	0.906886	-0.983370	0.164842	-0.076221
109	242038													9.545208	0.098474	-1.774350	-0.181631	-0.891765	0.414447	0.000197	0.421424	0.906864	-0.983367	0.164796	-0.076368
110	242205													9.566598	0.094691	-1.762362	-0.181669	-0.891731	0.414503	0.000116	0.421498	0.906829	-0.983360	0.164791	-0.076470
111	242372													9.574111	0.089638	-1.779875	-0.181657	-0.891659	0.414662	0.000128	0.421656	0.906756	-0.983362	0.164772	-0.076483
112	242538													9.611176	0.078866	-1.791126	-0.181641	-0.891646	0.414698	0.000125	0.421693	0.906739	-0.983365	0.164752	-0.076485
113	242705													9.643093	0.078562	-1.774084	-0.181490	-0.891603	0.414857	0.000067	0.421852	0.906665	-0.983393	0.164578	-0.076502
114	242872													9.615576	0.084912	-1.753818	-0.181222	-0.891649	0.414874	-0.000045	0.421867	0.906658	-0.983442	0.164287	-0.076491
115	243038													9.602447	0.081101	-1.756690	-0.180901	-0.891663	0.414985	-0.000198	0.421979	0.906605	-0.983501	0.163924	-0.076513
116	243205													9.554515	0.071465	-1.728243	-0.180590	-0.891659	0.415128	-0.000288	0.422115	0.906542	-0.983558	0.163593	-0.076487
117	243372													9.550175	0.068632	-1.737070	-0.180333	-0.891689	0.415175	-0.000340	0.422151	0.906525	-0.983606	0.163335	-0.076431
118	243538													9.557232	0.093836	-1.738663	-0.180156	-0.891704	0.415220	-0.000356	0.422186	0.906509	-0.983638	0.163165	-0.076377
119	243705													9.564971	0.127231	-1.738627	-0.180029	-0.891751	0.415173	-0.000384	0.422133	0.906534	-0.983661	0.163043	-0.076339
120	243872													9.572120	0.128954	-1.750854	-0.179960	-0.891768	0.415167	-0.000467	0.422135	0.906533	-0.983674	0.162946	-0.076384
121	244038													9.593609	0.122199	-1.737279	-0.179982	-0.891735	0.415229	-0.000598	0.422222	0.906492	-0.983670	0.162904	-0.076525
122	244205													9.601213	0.087966	-1.749030	-0.179980	-0.891722	0.415257	-0.000768	0.422278	0.906466	-0.983670	0.162827	-0.076687
123	244372													9.593954	0.049364	-1.743794	-0.179999	-0.891676	0.415348	-0.000969	0.422405	0.906407	-0.983666	0.162750	-0.076897
124	244538													9.592116	0.045788	-1.761012	-0.179994	-0.891681	0.415339	-0.001150	0.422425	0.906397	-0.983667	0.162669	-0.077059
125	244705													9.574766	0.046712	-1.744714	-0.180022	-0.891726	0.415231	-0.001289	0.422341	0.906436	-0.983662	0.162643	-0.077180
126	244872													9.585015	0.069554	-1.750253	-0.180021	-0.891810	0.415051	-0.001411	0.422178	0.906512	-0.983662	0.162605	-0.077259
127	245038													9.594038	0.086369	-1.750425	-0.179978	-0.891850	0.414984	-0.001494	0.422120	0.906539	-0.983669	0.162537	-0.077305
128	245205													9.594081	0.101518	-1.763335	-0.179888	-0.891866	0.414988	-0.001551	0.422126	0.906536	-0.983686	0.162431	-0.077318
129	245372													9.605668	0.110562	-1.730402	-0.179747	-0.891855	0.415074	-0.001593	0.422209	0.906497	-0.983712	0.162279	-0.077311
130	245538													9.599270	0.098062	-1.744783	-0.179586	-0.891815	0.415229	-0.001637	0.422361	0.906426	-0.983741	0.162101	-0.077310
131	245705													9.579799	0.088450	-1.730372	-0.179400	-0.891731	0.415489	-0.001711	0.422623	0.906304	-0.983775	0.161880	-0.077344
132	245872													9.543745	0.063852	-1.730879	-0.179276	-0.891652	0.415712	-0.001799	0.422854	0.906196	-0.983797	0.161711	-0.077412
133	246038													9.585443	0.055672	-1.727211	-0.179192	-0.891590	0.415881	-0.001864	0.423030	0.906114	-0.983812	0.161593	-0.077466
134	246205													9.565435	0.032225	-1.734689	-0.179165	-0.891569	0.415939	-0.001911	0.423094	0.906084	-0.983817	0.161544	-0.077507
135	246372													9.499330	0.012932	-1.732866	-0.179229	-0.891503	0.416053	-0.001999	0.423230	0.906020	-0.983805	0.161553	-0.077637
136	246538													9.571899	0.069540	-1.766733	-0.179457	-0.891483	0.415997	-0.002086	0.423206	0.906031	-0.983764	0.161726	-0.077807
137	246705													9.677420	0.149174	-1.768627	-0.179638	-0.891451	0.415986	-0.001950	0.423187	0.906040	-0.983731	0.161948	-0.077759
138	246872													9.680661	0.107344	-1.745211	-0.179596	-0.891371	0.416177	-0.001730	0.423341	0.905969	-0.983739	0.161989	-0.077572
139	247038													9.648144	0.079108	-1.755412	-0.179404	-0.891410	0.416177	-0.001676	0.423316	0.905980	-0.983774	0.161839	-0.077438
140	247205													9.611652	0.117706	-1.719710	-0.179081	-0.891347	0.416449	-0.001745	0.423579	0.905858	-0.983833	0.161495	-0.077410
141	247372													9.589268	0.105823	-1.710689	-0.178704	-0.891298	0.416716	-0.001791	0.423828	0.905741	-0.983901	0.161114	-0.077336
142	247538													9.566692	0.064034	-1.716072	-0.178335	-0.891215	0.417053	-0.001778	0.424138	0.905596	-0.983968	0.160758	-0.077224
143	247705													9.529420	0.046629	-1.728036	-0.178029	-0.891158	0.417305	-0.001787	0.424372	0.905486	-0.984024	0.160457	-0.077144
144	247872													9.533839	0.040569	-1.698402	-0.177831	-0.891091	0.417531	-0.001801	0.424588	0.905385	-0.984059	0.160254	-0.077110
145	248038													9.573863	0.050199	-1.721261	-0.177727	-0.891107	0.417542	-0.001877	0.424603	0.905378	-0.984078	0.160126	-0.077136
146	248205													9.558726	0.077271	-1.704045	-0.177663	-0.891091	0.417603	-0.001936	0.424669	0.905346	-0.984090	0.160038	-0.077173
147	248372													9.601975	0.086140	-1.720638	-0.177653	-0.891103	0.417583	-0.001951	0.424651	0.905355	-0.984091	0.160024	-0.077179
148	248538													9.622830	0.088844	-1.738437	-0.177663	-0.891166	0.417444	-0.001928	0.424507	0.905423	-0.984090	0.160055	-0.077138
149	248705													9.614730	0.113055	-1.723957	-0.177660	-0.891183	0.417407	-0.001887	0.424463	0.905443	-0.984090	0.160073	-0.077092
150	248872													9.586425	0.122052	-1.730563	-0.177605	-0.891128	0.417550	-0.001860	0.424599	0.905380	-0.984100	0.160024	-0.077068
151	249038													9.540431	0.094337	-1.717627	-0.177605	-0.891043	0.417732	-0.001878	0.424786	0.905292	-0.984100	0.160000	-0.077117
152	249205													9.535756	0.093918	-1.728606	-0.177707	-0.890974	0.417834	-0.001889	0.424900	0.905238	-0.984082	0.160078	-0.077191
153	249372													9.554738	0.098430	-1.741918	-0.177917	-0.890860	0.417989	-0.001802	0.425060	0.905163	-0.984044	0.160291	-0.077231
154	249538													9.577887	0.069064	-1.736056	-0.178131	-0.890690	0.418258	-0.001687	0.425332	0.905036	-0.984005	0.160509	-0.077268
155	249705													9.650799	0.112305	-1.741405	-0.178308	-0.890600	0.418375	-0.001599	0.425451	0.904980	-0.983973	0.160696	-0.077285
156	249872													9.662823	0.092166	-1.739153	-0.178371	-0.890484	0.418596	-0.001539	0.425670	0.904877	-0.983962	0.160759	-0.077297
157	250038													9.643284	0.082028	-1.733065	-0.178258	-0.890421	0.418777	-0.001503	0.425840	0.904797	-0.983983	0.160657	-0.077248
158	250205													9.591637	0.078251	-1.730349	-0.178110	-0.890397	0.418891	-0.001491	0.425941	0.904750	-0.984009	0.160520	-0.077192
159	250372													9.578504	0.086225	-1.704024	-0.177935	-0.890362	0.419041	-0.001434	0.426070	0.904689	-0.984041	0.160375	-0.077089
160	250538													9.556742	0.094419	-1.704757	-0.177814	-0.890333	0.419154	-0.001317	0.426156	0.904648	-0.984063	0.160307	-0.076949
161	250705													9.568397	0.119245	-1.703072	-0.177726	-0.890239	0.419391	-0.001174	0.426367	0.904550	-0.984079	0.160269	-0.076822
162	250872													9.574705	0.120969	-1.719955	-0.177702	-0.890154	0.419580	-0.001033	0.426534	0.904471	-0.984084	0.160293	-0.076715
163	251038													9.593878	0.129578	-1.695790	-0.177734	-0.890039	0.419811	-0.000950	0.426758	0.904365	-0.984078	0.160337	-0.076695
164	251205													9.570011	0.115516	-1.705605	-0.177798	-0.889891	0.420098	-0.000909	0.427048	0.904228	-0.984067	0.160388	-0.076737
165	251372													9.582822	0.106783	-1.720163	-0.177907	-0.889721	0.420411	-0.000896	0.427372	0.904075	-0.984047	0.160465	-0.076830
166	251538													9.591005	0.079669	-1.738258	-0.178024	-0.889602	0.420613	-0.000923	0.427592	0.903971	-0.984026	0.160541	-0.076943
167	251705													9.582559	0.081930	-1.727906	-0.178112	-0.889506	0.420780	-0.000983	0.427779	0.903883	-0.984010	0.160579	-0.077066
168	251872													9.592614	0.090886	-1.718800	-0.178196	-0.889475	0.420809	-0.001015	0.427820	0.903863	-0.983995	0.160637	-0.077139
169	252038													9.602900	0.105230	-1.731743	-0.178249	-0.889446	0.420847	-0.001012	0.427862	0.903843	-0.983985	0.160684	-0.077166
170	252205													9.611207	0.097466	-1.738838	-0.178285	-0.889433	0.420861	-0.000979	0.427874	0.903838	-0.983978	0.160729	-0.077155
171	252372													9.602409	0.117943	-1.732486	-0.178277	-0.889409	0.420914	-0.001001	0.427930	0.903811	-0.983980	0.160708	-0.077181
172	252538													9.580409	0.120082	-1.744860	-0.178297	-0.889365	0.420998	-0.001025	0.428022	0.903768	-0.983976	0.160707	-0.077226
173	252705													9.595115	0.109807	-1.735991	-0.178328	-0.889281	0.421163	-0.001037	0.428193	0.903687	-0.983971	0.160716	-0.077280
174	252872													9.539374	0.084831	-1.740451	-0.178340	-0.889199	0.421332	-0.001059	0.428370	0.903603	-0.983968	0.160703	-0.077337
175	253038													9.515013	0.055611	-1.731138	-0.178441	-0.889143	0.421407	-0.001160	0.428470	0.903555	-0.983950	0.160742	-0.077487
176	253205													9.612322	0.104198	-1.781613	-0.178703	-0.889131	0.421322	-0.001241	0.428418	0.903580	-0.983902	0.160949	-0.077663
177	253372													9.706692	0.163662	-1.790929	-0.178829	-0.889061	0.421416	-0.001105	0.428501	0.903541	-0.983880	0.161114	-0.077611
178	253538													9.662858	0.102948	-1.748823	-0.178785	-0.889013	0.421534	-0.000962	0.428595	0.903496	-0.983888	0.161126	-0.077481
179	253705													9.601740	0.091662	-1.728108	-0.178629	-0.888992	0.421646	-0.000977	0.428698	0.903447	-0.983916	0.160970	-0.077446
180	253872													9.557535	0.100304	-1.721063	-0.178424	-0.888969	0.421781	-0.001084	0.428837	0.903381	-0.983953	0.160728	-0.077479
181	254038													9.555333	0.097298	-1.724669	-0.178216	-0.888943	0.421924	-0.001150	0.428976	0.903315	-0.983991	0.160500	-0.077473
182	254205													9.551312	0.071229	-1.724065	-0.177997	-0.888899	0.422109	-0.001211	0.429157	0.903229	-0.984030	0.160261	-0.077465
183	254372													9.561734	0.054022	-1.711626	-0.177858	-0.888918	0.422127	-0.001268	0.429173	0.903222	-0.984055	0.160110	-0.077459
184	254538													9.584446	0.069558	-1.692268	-0.177772	-0.889006	0.421979	-0.001386	0.429035	0.903287	-0.984071	0.159994	-0.077502
185	254705													9.585048	0.085447	-1.727717	-0.177727	-0.889071	0.421860	-0.001517	0.428931	0.903336	-0.984079	0.159908	-0.077581
186	254872													9.599521	0.085783	-1.712566	-0.177731	-0.889164	0.421662	-0.001610	0.428746	0.903423	-0.984078	0.159888	-0.077633
187	255038													9.578410	0.085698	-1.706944	-0.177745	-0.889216	0.421546	-0.001667	0.428639	0.903475	-0.984075	0.159885	-0.077671
188	255205													9.588443	0.095287	-1.698712	-0.177782	-0.889271	0.421414	-0.001750	0.428521	0.903530	-0.984068	0.159894	-0.077740
189	255372													9.598248	0.129398	-1.738459	-0.177811	-0.889343	0.421250	-0.001804	0.428366	0.903604	-0.984063	0.159911	-0.077772
190	255538													9.540117	0.075203	-1.705632	-0.177866	-0.889373	0.421164	-0.001900	0.428298	0.903636	-0.984053	0.159926	-0.077869
191	255705													9.558475	0.084600	-1.722517	-0.177955	-0.889359	0.421157	-0.002046	0.428321	0.903624	-0.984037	0.159942	-0.078041
192	256038													9.549710	0.105034	-1.750479	-0.178111	-0.889360	0.421089	-0.002067	0.428268	0.903649	-0.984008	0.160079	-0.078118
193	256205													9.577544	0.079925	-1.733992	-0.178306	-0.889297	0.421138	-0.001994	0.428323	0.903624	-0.983973	0.160282	-0.078146
194	256372													9.609423	0.089126	-1.760181	-0.178473	-0.889239	0.421190	-0.001879	0.428370	0.903602	-0.983943	0.160477	-0.078123
195	256539													9.656983	0.105126	-1.752835	-0.178554	-0.889208	0.421222	-0.001805	0.428397	0.903589	-0.983928	0.160579	-0.078097
196	256705													9.646515	0.098231	-1.748057	-0.178472	-0.889206	0.421260	-0.001771	0.428423	0.903577	-0.983943	0.160517	-0.078036
197	256872													9.605342	0.086699	-1.726521	-0.178261	-0.889191	0.421381	-0.001752	0.428526	0.903528	-0.983982	0.160326	-0.077948
198	257039													9.559179	0.074528	-1.713868	-0.178043	-0.889194	0.421467	-0.001739	0.428594	0.903495	-0.984021	0.160128	-0.077854
199	257205													9.541633	0.073355	-1.713482	-0.177864	-0.889177	0.421579	-0.001694	0.428686	0.903452	-0.984054	0.159977	-0.077754
200	257372													9.547318	0.077976	-1.704817	-0.177780	-0.889180	0.421609	-0.001605	0.428695	0.903448	-0.984069	0.159938	-0.077641
201	257539													9.566820	0.100113	-1.703183	-0.177798	-0.889159	0.421644	-0.001489	0.428713	0.903439	-0.984066	0.160002	-0.077548
202	257705													9.584221	0.117142	-1.709137	-0.177867	-0.889124	0.421689	-0.001334	0.428740	0.903427	-0.984054	0.160128	-0.077445
203	257872													9.619423	0.128615	-1.725971	-0.177968	-0.889048	0.421807	-0.001210	0.428847	0.903376	-0.984036	0.160261	-0.077397
204	258039													9.595592	0.094767	-1.711649	-0.178024	-0.888977	0.421933	-0.001166	0.428973	0.903317	-0.984025	0.160320	-0.077404
205	258205													9.604545	0.088858	-1.724354	-0.178036	-0.888907	0.422074	-0.001156	0.429115	0.903249	-0.984023	0.160323	-0.077425
206	258372													9.601998	0.050868	-1.692737	-0.178015	-0.888883	0.422134	-0.001198	0.429181	0.903218	-0.984027	0.160281	-0.077466
207	258539													9.611259	0.072511	-1.699961	-0.177943	-0.888880	0.422171	-0.001246	0.429221	0.903199	-0.984040	0.160192	-0.077484
208	258705													9.589722	0.084949	-1.719913	-0.177869	-0.888887	0.422188	-0.001295	0.429240	0.903190	-0.984053	0.160102	-0.077500
209	258872													9.545888	0.097659	-1.716916	-0.177833	-0.888920	0.422134	-0.001338	0.429190	0.903213	-0.984060	0.160056	-0.077514
210	259039													9.600837	0.096014	-1.715732	-0.177848	-0.888957	0.422048	-0.001371	0.429109	0.903252	-0.984057	0.160063	-0.077535
211	259205													9.575564	0.077110	-1.716884	-0.177863	-0.888963	0.422030	-0.001451	0.429105	0.903254	-0.984054	0.160043	-0.077612
212	259372													9.507092	0.060338	-1.721356	-0.177924	-0.889009	0.421908	-0.001546	0.429001	0.903303	-0.984043	0.160067	-0.077704
213	259539													9.588448	0.068325	-1.754342	-0.178159	-0.888980	0.421869	-0.001654	0.428998	0.903304	-0.984000	0.160234	-0.077900
214	259705													9.695212	0.164287	-1.767240	-0.178292	-0.888936	0.421907	-0.001529	0.429027	0.903291	-0.983977	0.160404	-0.077851
215	259872													9.679810	0.127223	-1.752302	-0.178228	-0.888883	0.422046	-0.001242	0.429116	0.903249	-0.983988	0.160460	-0.077585
216	260039													9.632058	0.072791	-1.737737	-0.178058	-0.888845	0.422197	-0.001107	0.429234	0.903193	-0.984019	0.160353	-0.077412
217	260205													9.584873	0.114466	-1.699537	-0.177777	-0.888772	0.422469	-0.001069	0.429482	0.903075	-0.984070	0.160094	-0.077302
218	260372													9.571855	0.105061	-1.692536	-0.177433	-0.888735	0.422690	-0.001037	0.429674	0.902984	-0.984132	0.159781	-0.077160
219	260539													9.560142	0.070117	-1.720797	-0.177121	-0.888668	0.422963	-0.000988	0.429919	0.902867	-0.984188	0.159499	-0.077026
220	260705													9.538871	0.047400	-1.694895	-0.176876	-0.888607	0.423194	-0.000954	0.430128	0.902767	-0.984233	0.159274	-0.076927
221	260872													9.550835	0.048456	-1.708641	-0.176738	-0.888636	0.423189	-0.000986	0.430117	0.902772	-0.984257	0.159137	-0.076894
222	261039													9.579412	0.048588	-1.713002	-0.176693	-0.888670	0.423136	-0.001067	0.430073	0.902793	-0.984265	0.159066	-0.076939
223	261205													9.578911	0.065423	-1.700040	-0.176686	-0.888766	0.422938	-0.001128	0.429881	0.902885	-0.984267	0.159050	-0.076957
224	261372													9.610678	0.075444	-1.716601	-0.176682	-0.888827	0.422811	-0.001150	0.429755	0.902945	-0.984267	0.159048	-0.076952
225	261539													9.612373	0.076778	-1.703294	-0.176642	-0.888900	0.422675	-0.001179	0.429618	0.903010	-0.984274	0.159012	-0.076936
226	261705													9.606647	0.104736	-1.715113	-0.176602	-0.888961	0.422564	-0.001231	0.429511	0.903061	-0.984282	0.158962	-0.076946
227	261872													9.584261	0.109521	-1.721661	-0.176500	-0.889021	0.422481	-0.001280	0.429427	0.903101	-0.984300	0.158856	-0.076932
228	262039													9.524744	0.073239	-1.713786	-0.176491	-0.889054	0.422414	-0.001399	0.429377	0.903124	-0.984301	0.158803	-0.077025
229	262205													9.516744	0.068152	-1.713095	-0.176612	-0.889066	0.422337	-0.001470	0.429320	0.903151	-0.984279	0.158887	-0.077130
230	262372													9.555361	0.108527	-1.706895	-0.176800	-0.889057	0.422279	-0.001410	0.429266	0.903177	-0.984246	0.159086	-0.077148
231	262539													9.589395	0.086486	-1.742305	-0.177033	-0.888968	0.422368	-0.001236	0.429347	0.903139	-0.984204	0.159363	-0.077108
232	262705													9.639442	0.081535	-1.741004	-0.177244	-0.888910	0.422402	-0.001107	0.429378	0.903124	-0.984166	0.159606	-0.077089
233	262872													9.676695	0.090428	-1.739728	-0.177332	-0.888873	0.422443	-0.001025	0.429413	0.903108	-0.984151	0.159716	-0.077060
234	263039													9.641115	0.070011	-1.698112	-0.177265	-0.888821	0.422582	-0.001010	0.429546	0.903044	-0.984163	0.159651	-0.077041
235	263205													9.603271	0.065602	-1.717402	-0.177131	-0.888825	0.422628	-0.000977	0.429577	0.903030	-0.984187	0.159542	-0.076960
236	263372													9.568625	0.077214	-1.722262	-0.176996	-0.888809	0.422719	-0.000866	0.429641	0.902999	-0.984211	0.159461	-0.076815
237	263539													9.540703	0.078287	-1.703691	-0.176917	-0.888821	0.422726	-0.000713	0.429617	0.903011	-0.984225	0.159457	-0.076640
238	263705													9.564888	0.094537	-1.718704	-0.176910	-0.888838	0.422693	-0.000544	0.429555	0.903041	-0.984227	0.159527	-0.076476
239	263872													9.559223	0.114253	-1.698341	-0.176985	-0.888811	0.422719	-0.000362	0.429558	0.903039	-0.984214	0.159671	-0.076347
240	264039													9.591484	0.116073	-1.728131	-0.177125	-0.888786	0.422712	-0.000244	0.429542	0.903047	-0.984188	0.159849	-0.076299
241	264205													9.613514	0.125478	-1.712202	-0.177237	-0.888732	0.422779	-0.000171	0.429608	0.903015	-0.984168	0.159975	-0.076295
242	264372													9.601755	0.105512	-1.707267	-0.177361	-0.888650	0.422899	-0.000111	0.429730	0.902957	-0.984146	0.160102	-0.076316
243	264539													9.619569	0.087985	-1.746548	-0.177412	-0.888595	0.422994	-0.000105	0.429830	0.902910	-0.984137	0.160143	-0.076351
244	264705													9.592049	0.096071	-1.735083	-0.177420	-0.888589	0.423004	-0.000140	0.429846	0.902902	-0.984135	0.160134	-0.076388
245	264872													9.565217	0.081899	-1.727476	-0.177428	-0.888589	0.422999	-0.000174	0.429847	0.902902	-0.984134	0.160127	-0.076422
246	265039													9.563214	0.071227	-1.721386	-0.177472	-0.888601	0.422956	-0.000196	0.429810	0.902919	-0.984126	0.160160	-0.076454
247	265205													9.599188	0.063585	-1.730538	-0.177483	-0.888663	0.422822	-0.000201	0.429676	0.902983	-0.984124	0.160179	-0.076438
248	265372													9.562083	0.068721	-1.725728	-0.177525	-0.888720	0.422683	-0.000243	0.429545	0.903046	-0.984116	0.160210	-0.076471
249	265539													9.517507	0.067484	-1.739678	-0.177655	-0.888822	0.422415	-0.000299	0.429292	0.903166	-0.984093	0.160326	-0.076532
250	265705													9.640814	0.154082	-1.772306	-0.177841	-0.888858	0.422261	-0.000270	0.429145	0.903236	-0.984059	0.160518	-0.076559
251	265872													9.714109	0.200060	-1.781406	-0.177878	-0.888817	0.422331	0.000035	0.429170	0.903224	-0.984053	0.160678	-0.076309
252	266039													9.690645	0.126131	-1.753045	-0.177711	-0.888718	0.422609	0.000310	0.429394	0.903117	-0.984083	0.160625	-0.076032
253	266205													9.617199	0.098366	-1.714208	-0.177397	-0.888610	0.422969	0.000437	0.429715	0.902964	-0.984139	0.160368	-0.075842
254	266372													9.577572	0.113100	-1.704274	-0.177004	-0.888525	0.423311	0.000463	0.430027	0.902816	-0.984210	0.159998	-0.075705
255	266539													9.544643	0.075037	-1.708614	-0.176655	-0.888439	0.423638	0.000524	0.430322	0.902675	-0.984273	0.159684	-0.075553
256	266705													9.530118	0.044067	-1.706167	-0.176370	-0.888396	0.423847	0.000578	0.430503	0.902589	-0.984324	0.159435	-0.075414
257	266872													9.536036	0.057416	-1.700680	-0.176210	-0.888416	0.423871	0.000622	0.430508	0.902586	-0.984352	0.159308	-0.075308
258	267039													9.552032	0.072354	-1.684283	-0.176155	-0.888438	0.423849	0.000679	0.430472	0.902604	-0.984362	0.159286	-0.075226
259	267205													9.579808	0.081580	-1.693009	-0.176190	-0.888514	0.423675	0.000675	0.430299	0.902686	-0.984356	0.159331	-0.075215
260	267372													9.618752	0.082695	-1.709865	-0.176239	-0.888581	0.423514	0.000639	0.430145	0.902760	-0.984347	0.159372	-0.075240
261	267539													9.633008	0.099937	-1.729604	-0.176238	-0.888668	0.423331	0.000617	0.429962	0.902847	-0.984347	0.159377	-0.075227
262	267705													9.629475	0.107147	-1.706448	-0.176168	-0.888706	0.423282	0.000600	0.429910	0.902872	-0.984360	0.159311	-0.075203
263	267872													9.623649	0.105187	-1.687262	-0.176059	-0.888755	0.423222	0.000603	0.429841	0.902905	-0.984379	0.159220	-0.075141
264	268039													9.575198	0.124574	-1.684823	-0.175901	-0.888791	0.423213	0.000604	0.429819	0.902915	-0.984408	0.159079	-0.075069
265	268205													9.508859	0.095967	-1.706620	-0.175858	-0.888801	0.423209	0.000587	0.429814	0.902917	-0.984415	0.159034	-0.075065
266	268372													9.526326	0.094923	-1.706745	-0.175971	-0.888753	0.423263	0.000588	0.429878	0.902887	-0.984395	0.159131	-0.075123
267	268539													9.593287	0.117096	-1.714212	-0.176130	-0.888668	0.423376	0.000699	0.429987	0.902835	-0.984367	0.159312	-0.075113
268	268705													9.620148	0.082292	-1.723682	-0.176252	-0.888584	0.423502	0.000847	0.430100	0.902781	-0.984345	0.159476	-0.075053
269	268872													9.647974	0.100499	-1.740190	-0.176308	-0.888522	0.423608	0.001032	0.430182	0.902741	-0.984335	0.159597	-0.074928
270	269039													9.637461	0.088246	-1.718296	-0.176275	-0.888467	0.423737	0.001170	0.430289	0.902691	-0.984340	0.159618	-0.074810
271	269205													9.615606	0.087438	-1.703365	-0.176135	-0.888452	0.423827	0.001206	0.430363	0.902655	-0.984365	0.159500	-0.074731
272	269372													9.576407	0.088676	-1.690291	-0.175966	-0.888465	0.423869	0.001256	0.430385	0.902645	-0.984395	0.159367	-0.074617
273	269539													9.550623	0.081108	-1.700361	-0.175826	-0.888484	0.423889	0.001354	0.430378	0.902648	-0.984420	0.159283	-0.074468
274	269705													9.555017	0.115014	-1.701059	-0.175737	-0.888498	0.423896	0.001524	0.430351	0.902660	-0.984436	0.159277	-0.074275
275	269872													9.585359	0.124202	-1.707449	-0.175734	-0.888499	0.423895	0.001714	0.430319	0.902675	-0.984436	0.159357	-0.074098
276	270039													9.593716	0.144647	-1.699510	-0.175737	-0.888485	0.423924	0.001868	0.430324	0.902673	-0.984435	0.159425	-0.073964
277	270205													9.604927	0.139494	-1.702868	-0.175808	-0.888448	0.423972	0.001961	0.430363	0.902654	-0.984423	0.159525	-0.073919
278	270372													9.603225	0.145276	-1.710402	-0.175852	-0.888368	0.424120	0.002025	0.430507	0.902585	-0.984415	0.159580	-0.073906
279	270539													9.614665	0.101460	-1.712511	-0.175907	-0.888304	0.424231	0.002001	0.430628	0.902528	-0.984405	0.159610	-0.073973
280	270705													9.609081	0.075254	-1.698634	-0.175933	-0.888276	0.424281	0.001910	0.430694	0.902496	-0.984400	0.159589	-0.074077
281	270872													9.565547	0.079328	-1.709214	-0.175960	-0.888281	0.424259	0.001838	0.430686	0.902500	-0.984396	0.159584	-0.074150
282	271039													9.596157	0.086473	-1.733083	-0.176000	-0.888347	0.424103	0.001791	0.430539	0.902570	-0.984388	0.159612	-0.074184
283	271205													9.586946	0.083347	-1.715918	-0.176013	-0.888425	0.423935	0.001778	0.430371	0.902651	-0.984386	0.159632	-0.074171
284	271372													9.518790	0.097730	-1.701902	-0.176063	-0.888542	0.423668	0.001717	0.430113	0.902773	-0.984377	0.159673	-0.074202
285	271539													9.530227	0.091555	-1.718062	-0.176273	-0.888586	0.423489	0.001626	0.429962	0.902845	-0.984340	0.159835	-0.074346
286	271705													9.648948	0.170628	-1.740064	-0.176519	-0.888578	0.423402	0.001741	0.429874	0.902887	-0.984296	0.160114	-0.074334
287	271872													9.680639	0.165696	-1.750764	-0.176597	-0.888487	0.423562	0.002009	0.429999	0.902827	-0.984281	0.160288	-0.074151
288	272039													9.653471	0.093392	-1.723162	-0.176557	-0.888400	0.423762	0.002151	0.430176	0.902743	-0.984288	0.160297	-0.074039
289	272205													9.620521	0.115225	-1.703219	-0.176389	-0.888316	0.424006	0.002184	0.430406	0.902633	-0.984318	0.160140	-0.073978
290	272372													9.572488	0.094187	-1.672433	-0.176194	-0.888240	0.424246	0.002219	0.430629	0.902526	-0.984353	0.159961	-0.073904
291	272539													9.553471	0.058455	-1.675930	-0.176030	-0.888173	0.424455	0.002244	0.430825	0.902433	-0.984382	0.159808	-0.073846
292	272705													9.513745	0.039499	-1.683174	-0.175946	-0.888181	0.424473	0.002253	0.430835	0.902428	-0.984397	0.159735	-0.073803
293	272872													9.545512	0.056422	-1.684125	-0.175984	-0.888224	0.424367	0.002202	0.430739	0.902474	-0.984390	0.159756	-0.073848
294	273039													9.557116	0.080132	-1.674010	-0.176104	-0.888289	0.424181	0.002146	0.430568	0.902556	-0.984369	0.159854	-0.073918
295	273206													9.596869	0.078478	-1.729688	-0.176290	-0.888367	0.423940	0.002076	0.430349	0.902660	-0.984336	0.160011	-0.074022
296	273372													9.603337	0.113373	-1.728251	-0.176527	-0.888417	0.423738	0.002032	0.430169	0.902746	-0.984294	0.160220	-0.074131
297	273539													9.638643	0.122867	-1.709681	-0.176737	-0.888444	0.423594	0.002004	0.430043	0.902806	-0.984256	0.160408	-0.074224
298	273706													9.624338	0.109494	-1.705237	-0.176870	-0.888432	0.423562	0.001957	0.430029	0.902813	-0.984232	0.160509	-0.074320
299	273872													9.597929	0.107612	-1.722183	-0.176964	-0.888396	0.423599	0.001946	0.430075	0.902791	-0.984215	0.160586	-0.074379
300	274039													9.489434	0.078895	-1.695880	-0.177060	-0.888384	0.423584	0.001938	0.430069	0.902794	-0.984198	0.160670	-0.074426
301	274206													9.517463	0.082951	-1.707544	-0.177356	-0.888328	0.423579	0.001917	0.430089	0.902784	-0.984145	0.160926	-0.074576
302	274372													9.561397	0.100271	-1.719826	-0.177692	-0.888283	0.423530	0.001975	0.430057	0.902800	-0.984084	0.161257	-0.074664
303	274539													9.576442	0.100546	-1.721855	-0.178036	-0.888213	0.423533	0.002151	0.430057	0.902799	-0.984022	0.161642	-0.074655
304	274706													9.615240	0.107389	-1.780194	-0.178355	-0.888131	0.423572	0.002349	0.430088	0.902784	-0.983963	0.162011	-0.074622
305	274872													9.641660	0.114225	-1.763084	-0.178644	-0.888063	0.423592	0.002539	0.430100	0.902778	-0.983910	0.162351	-0.074580
306	275039													9.642624	0.086308	-1.753418	-0.178810	-0.887997	0.423660	0.002658	0.430163	0.902748	-0.983880	0.162547	-0.074557
307	275206													9.617120	0.100706	-1.734697	-0.178859	-0.887945	0.423749	0.002741	0.430242	0.902709	-0.983871	0.162620	-0.074519
308	275372													9.576407	0.098521	-1.732629	-0.178833	-0.887915	0.423824	0.002856	0.430297	0.902683	-0.983875	0.162640	-0.074416
309	275539													9.559566	0.107515	-1.729843	-0.178833	-0.887901	0.423853	0.003032	0.430298	0.902682	-0.983875	0.162714	-0.074259
310	275706													9.545841	0.113866	-1.720045	-0.178868	-0.887887	0.423866	0.003184	0.430289	0.902685	-0.983868	0.162811	-0.074138
311	275872													9.571601	0.126051	-1.746459	-0.179025	-0.887832	0.423916	0.003323	0.430329	0.902666	-0.983839	0.163008	-0.074090
312	276039													9.594102	0.132657	-1.736018	-0.179203	-0.887748	0.424016	0.003399	0.430432	0.902617	-0.983806	0.163193	-0.074117
313	276206													9.587436	0.144915	-1.749273	-0.179389	-0.887666	0.424110	0.003477	0.430529	0.902570	-0.983772	0.163386	-0.074146
314	276372													9.594211	0.121613	-1.746217	-0.179560	-0.887599	0.424177	0.003492	0.430607	0.902533	-0.983741	0.163540	-0.074220
315	276539													9.596357	0.081136	-1.752614	-0.179688	-0.887574	0.424175	0.003434	0.430625	0.902525	-0.983718	0.163630	-0.074330
316	276706													9.576850	0.086489	-1.732355	-0.179801	-0.887606	0.424061	0.003312	0.430538	0.902567	-0.983698	0.163687	-0.074471
317	276872													9.551831	0.089496	-1.751593	-0.179930	-0.887653	0.423907	0.003228	0.430405	0.902630	-0.983674	0.163779	-0.074577
318	277039													9.574267	0.104332	-1.761906	-0.180080	-0.887703	0.423740	0.003150	0.430260	0.902700	-0.983647	0.163893	-0.074685
319	277206													9.583372	0.087451	-1.772270	-0.180245	-0.887756	0.423558	0.003091	0.430098	0.902777	-0.983617	0.164030	-0.074779
320	277372													9.497047	0.091311	-1.766201	-0.180417	-0.887819	0.423353	0.002987	0.429920	0.902862	-0.983586	0.164156	-0.074913
321	277539													9.567575	0.102446	-1.780154	-0.180753	-0.887867	0.423108	0.002909	0.429710	0.902962	-0.983524	0.164444	-0.075088
322	277706													9.678582	0.187649	-1.795869	-0.181045	-0.887870	0.422976	0.003090	0.429568	0.903029	-0.983470	0.164796	-0.075027
323	277872													9.683038	0.165893	-1.775745	-0.181130	-0.887798	0.423092	0.003406	0.429639	0.902994	-0.983453	0.165001	-0.074797
324	278039													9.635507	0.133805	-1.775890	-0.181059	-0.887722	0.423281	0.003534	0.429805	0.902915	-0.983466	0.164977	-0.074683
325	278206													9.586399	0.156581	-1.760342	-0.180867	-0.887634	0.423548	0.003571	0.430055	0.902796	-0.983501	0.164799	-0.074613
326	278372													9.541424	0.091146	-1.739715	-0.180626	-0.887546	0.423836	0.003600	0.430324	0.902667	-0.983545	0.164571	-0.074533
327	278539													9.524155	0.047583	-1.757481	-0.180461	-0.887468	0.424068	0.003610	0.430546	0.902561	-0.983575	0.164408	-0.074494
328	278706													9.516091	0.035161	-1.752728	-0.180416	-0.887429	0.424169	0.003630	0.430642	0.902516	-0.983584	0.164368	-0.074473
329	278872													9.572967	0.066793	-1.747024	-0.180433	-0.887434	0.424151	0.003622	0.430626	0.902523	-0.983581	0.164381	-0.074485
330	279039													9.579288	0.092360	-1.766614	-0.180484	-0.887516	0.423958	0.003551	0.430446	0.902610	-0.983572	0.164412	-0.074537
331	279206													9.615253	0.101866	-1.775672	-0.180519	-0.887582	0.423804	0.003451	0.430309	0.902675	-0.983565	0.164413	-0.074616
332	279372													9.627825	0.113598	-1.785947	-0.180521	-0.887665	0.423631	0.003296	0.430159	0.902747	-0.983566	0.164361	-0.074727
333	279539													9.623277	0.108703	-1.799034	-0.180458	-0.887740	0.423500	0.003154	0.430044	0.902802	-0.983578	0.164254	-0.074805
334	279706													9.613876	0.098078	-1.778396	-0.180305	-0.887794	0.423452	0.003017	0.430006	0.902821	-0.983606	0.164060	-0.074854
335	279872													9.594402	0.114549	-1.785532	-0.180114	-0.887856	0.423403	0.002931	0.429956	0.902845	-0.983641	0.163856	-0.074839
336	280039													9.488655	0.098572	-1.782166	-0.179879	-0.887862	0.423491	0.002873	0.430037	0.902806	-0.983684	0.163613	-0.074804
337	280206													9.541311	0.086391	-1.792405	-0.179751	-0.887849	0.423572	0.002815	0.430119	0.902768	-0.983708	0.163466	-0.074815
338	280372													9.620734	0.093157	-1.796645	-0.179541	-0.887848	0.423664	0.002827	0.430194	0.902732	-0.983746	0.163275	-0.074728
339	280539													9.649589	0.092946	-1.800801	-0.179174	-0.887809	0.423900	0.002892	0.430396	0.902636	-0.983813	0.162954	-0.074548
340	280706													9.648086	0.098544	-1.839668	-0.178630	-0.887815	0.424118	0.002966	0.430563	0.902556	-0.983912	0.162481	-0.074278
341	280872													9.668272	0.094340	-1.824421	-0.177915	-0.887824	0.424400	0.002969	0.430794	0.902445	-0.984041	0.161819	-0.074009
342	281039													9.641071	0.073984	-1.789301	-0.176992	-0.887914	0.424598	0.002915	0.430934	0.902379	-0.984208	0.160952	-0.073684
343	281206													9.620295	0.083059	-1.808481	-0.175806	-0.888048	0.424810	0.002822	0.431075	0.902312	-0.984421	0.159831	-0.073279
344	281372													9.609152	0.083567	-1.797471	-0.174428	-0.888239	0.424977	0.002752	0.431152	0.902275	-0.984666	0.158552	-0.072761
345	281539													9.605359	0.106207	-1.797048	-0.172909	-0.888484	0.425086	0.002721	0.431154	0.902274	-0.984934	0.157168	-0.072133
346	281706													9.656246	0.111031	-1.795325	-0.171252	-0.888786	0.425127	0.002680	0.431079	0.902310	-0.985224	0.155661	-0.071441
347	281872													9.711171	0.125002	-1.810737	-0.169378	-0.889096	0.425229	0.002529	0.431069	0.902315	-0.985548	0.153908	-0.070765
348	282039													9.717725	0.135133	-1.775589	-0.167229	-0.889462	0.425314	0.002302	0.431036	0.902332	-0.985915	0.151875	-0.070034
349	282206													9.701282	0.140211	-1.759273	-0.164768	-0.889813	0.425540	0.002047	0.431127	0.902289	-0.986330	0.149539	-0.069215
350	282372													9.758230	0.110670	-1.729263	-0.161973	-0.890195	0.425814	0.001765	0.431250	0.902231	-0.986794	0.146888	-0.068280
351	282539													9.770616	0.077814	-1.675847	-0.158747	-0.890691	0.425992	0.001363	0.431265	0.902224	-0.987318	0.143806	-0.067248
352	282706													9.746615	0.061088	-1.644170	-0.155058	-0.891238	0.426207	0.000902	0.431297	0.902210	-0.987905	0.140280	-0.066072
353	282872													9.717979	0.059002	-1.637867	-0.151056	-0.891809	0.426448	0.000468	0.431334	0.902192	-0.988525	0.136482	-0.064738
354	283039													9.692929	0.013157	-1.606899	-0.146725	-0.892470	0.426578	-0.000007	0.431247	0.902234	-0.989177	0.132377	-0.063281
355	283206													9.653852	0.012310	-1.590638	-0.142039	-0.893206	0.426625	-0.000544	0.431065	0.902321	-0.989861	0.127932	-0.061714
356	283372													9.672047	0.007478	-1.578671	-0.137229	-0.893979	0.426579	-0.001141	0.430796	0.902449	-0.990539	0.123355	-0.060138
357	283539													9.807523	0.071837	-1.542436	-0.132159	-0.894788	0.426484	-0.001675	0.430459	0.902608	-0.991227	0.118573	-0.058388
358	283706													9.857313	0.106782	-1.442616	-0.126594	-0.895581	0.426508	-0.001990	0.430196	0.902733	-0.991953	0.113432	-0.056242
359	283872													9.812762	0.076759	-1.361518	-0.120533	-0.896340	0.426669	-0.002406	0.430065	0.902795	-0.992706	0.107790	-0.053994
360	284039													9.749514	0.069975	-1.293256	-0.114100	-0.897102	0.426837	-0.002982	0.429950	0.902848	-0.993465	0.101742	-0.051732
361	284206													9.739284	0.068821	-1.226377	-0.107393	-0.897797	0.427116	-0.003656	0.429954	0.902843	-0.994210	0.095397	-0.049457
362	284372													9.760163	0.041317	-1.132609	-0.100387	-0.898426	0.427496	-0.004333	0.430057	0.902791	-0.994939	0.088776	-0.047065
363	284539													9.706559	-0.023397	-1.076788	-0.093174	-0.899032	0.427856	-0.004982	0.430141	0.902748	-0.995637	0.081981	-0.044557
364	284706													9.720214	-0.031017	-1.015329	-0.085864	-0.899670	0.428044	-0.005632	0.430062	0.902782	-0.996291	0.075106	-0.041993
365	284872													9.750020	-0.050728	-0.934405	-0.078406	-0.900307	0.428134	-0.006277	0.429894	0.902858	-0.996902	0.068102	-0.039358
366	285039													9.766342	-0.031713	-0.863236	-0.070785	-0.900968	0.428074	-0.006935	0.429584	0.903000	-0.997467	0.060950	-0.036656
367	285206													9.810013	0.017430	-0.796451	-0.063001	-0.901580	0.428000	-0.007661	0.429277	0.903141	-0.997984	0.053619	-0.033952
368	285372													9.991688	0.120535	-0.753208	-0.054922	-0.902090	0.428039	-0.008423	0.429089	0.903223	-0.998455	0.046001	-0.031165
369	285539													10.097521	0.190325	-0.690402	-0.046054	-0.902420	0.428390	-0.009196	0.429209	0.903158	-0.998897	0.037655	-0.028065
370	285706													10.118726	0.226552	-0.600947	-0.036167	-0.902498	0.429174	-0.010154	0.429764	0.902884	-0.999294	0.028297	-0.024707
371	285872													10.008537	0.229238	-0.542916	-0.025124	-0.902256	0.430467	-0.011450	0.430835	0.902358	-0.999619	0.017742	-0.021155
372	286039													9.796142	0.091311	-0.434193	-0.013388	-0.901725	0.432104	-0.013081	0.432263	0.901653	-0.999825	0.006419	-0.017583
373	286206													9.864331	0.059507	-0.279067	-0.001304	-0.900995	0.433827	-0.015209	0.433795	0.900883	-0.999883	-0.005424	-0.014269
374	286372													9.879931	0.028400	-0.122869	0.011180	-0.900076	0.435589	-0.017806	0.435368	0.900077	-0.999779	-0.017819	-0.011159
375	286539													9.863665	-0.014651	-0.018297	0.024103	-0.898950	0.437389	-0.020677	0.436974	0.899237	-0.999496	-0.030718	-0.008055
376	286706													9.777760	-0.146173	0.106042	0.037298	-0.897621	0.439188	-0.023570	0.438581	0.898383	-0.999026	-0.043860	-0.004799
377	286872													9.777640	-0.294411	0.321557	0.050725	-0.896172	0.440798	-0.026502	0.440003	0.897605	-0.998361	-0.057213	-0.001431
378	287039													9.659583	-0.391304	0.462865	0.064160	-0.894697	0.442041	-0.029327	0.441072	0.896992	-0.997509	-0.070515	0.002061
379	287206													9.582255	-0.456628	0.584876	0.077215	-0.893288	0.442802	-0.031738	0.441701	0.896601	-0.996509	-0.083285	0.005754
380	287372													9.576506	-0.473156	0.709628	0.089930	-0.891943	0.443113	-0.033597	0.441946	0.896412	-0.995381	-0.095502	0.009778
381	287539													9.555314	-0.461174	0.856162	0.102246	-0.890671	0.443003	-0.034947	0.441846	0.896410	-0.994145	-0.107136	0.014051
382	287706													9.597863	-0.457235	1.069011	0.114116	-0.889485	0.442486	-0.036072	0.441392	0.896589	-0.992812	-0.118276	0.018284
383	287872													9.638324	-0.400895	1.193981	0.125598	-0.888370	0.441616	-0.036996	0.440637	0.896923	-0.991391	-0.128990	0.022477
384	288039													9.590236	-0.330684	1.326288	0.136675	-0.887254	0.440569	-0.037731	0.439757	0.897324	-0.989897	-0.139265	0.026627
385	288206													9.681069	-0.307510	1.417385	0.147526	-0.886030	0.439531	-0.038264	0.438948	0.897697	-0.988318	-0.149252	0.030853
386	288372													9.801266	-0.262957	1.477636	0.158481	-0.884628	0.438540	-0.038805	0.438229	0.898025	-0.986599	-0.159337	0.035123
387	288539													9.771970	-0.257090	1.564880	0.169927	-0.882984	0.437566	-0.039439	0.437574	0.898317	-0.984667	-0.169905	0.039532
388	288706													9.614882	-0.321071	1.683182	0.181792	-0.881104	0.436586	-0.040181	0.436957	0.898584	-0.982516	-0.180898	0.044031
389	288872													9.619307	-0.411963	1.897851	0.193587	-0.879173	0.435407	-0.041200	0.436126	0.898942	-0.980218	-0.191962	0.048206
390	289039													9.549245	-0.418498	2.052893	0.205218	-0.877272	0.433912	-0.042316	0.434981	0.899445	-0.977801	-0.202944	0.052144
391	289206													9.540212	-0.383794	2.171237	0.216593	-0.875361	0.432239	-0.043339	0.433691	0.900019	-0.975300	-0.213670	0.055997
392	289372													9.550527	-0.410272	2.236591	0.227705	-0.873440	0.430411	-0.044241	0.432286	0.900650	-0.972725	-0.224124	0.059792
393	289539													9.593369	-0.350400	2.391553	0.238678	-0.871489	0.428415	-0.044891	0.430792	0.901334	-0.970061	-0.234361	0.063699
394	289706													9.504905	-0.319012	2.517979	0.249503	-0.869380	0.426528	-0.045340	0.429487	0.901934	-0.967312	-0.244374	0.067740
395	289873													9.364333	-0.332953	2.627979	0.259954	-0.867187	0.424749	-0.045681	0.428335	0.902465	-0.964540	-0.254002	0.071733
396	290039													9.352115	-0.317982	2.702401	0.269829	-0.864976	0.423094	-0.045916	0.427334	0.902927	-0.961813	-0.263062	0.075591
397	290206													9.398746	-0.267857	2.769874	0.279448	-0.862637	0.421624	-0.046145	0.426545	0.903289	-0.959051	-0.271878	0.079390
398	290373													9.398364	-0.286501	2.789766	0.289013	-0.860096	0.420365	-0.046461	0.425985	0.903537	-0.956197	-0.280665	0.083154
399	290539													9.416460	-0.316058	2.818537	0.298583	-0.857414	0.419153	-0.046808	0.425503	0.903746	-0.953235	-0.289463	0.086914
400	290706													9.418217	-0.319267	2.938134	0.308305	-0.854550	0.417961	-0.047315	0.425045	0.903935	-0.950110	-0.298463	0.090611
401	290873													9.467339	-0.395008	3.153482	0.318158	-0.851570	0.416659	-0.048063	0.424442	0.904178	-0.946819	-0.307697	0.094111
402	291039													9.322393	-0.359770	3.294363	0.327884	-0.848588	0.415199	-0.049025	0.423619	0.904513	-0.943445	-0.316931	0.097296
403	291206													9.214051	-0.389335	3.367529	0.337185	-0.845677	0.413687	-0.050158	0.422659	0.904900	-0.940101	-0.325868	0.100097
404	291373													9.195536	-0.370565	3.398118	0.346025	-0.842882	0.412087	-0.051433	0.421518	0.905360	-0.936814	-0.334472	0.102504
405	291539													9.223095	-0.417477	3.366678	0.354650	-0.840099	0.410435	-0.052871	0.420247	0.905868	-0.933503	-0.342967	0.104624
406	291706													9.252382	-0.482091	3.369217	0.363396	-0.837256	0.408589	-0.054349	0.418773	0.906463	-0.930048	-0.351611	0.106676
407	291873													9.311207	-0.525049	3.419765	0.372550	-0.834222	0.406546	-0.055710	0.417188	0.907111	-0.926338	-0.360593	0.108949
408	292039													9.299310	-0.572981	3.425001	0.382264	-0.830939	0.404245	-0.056809	0.415510	0.907813	-0.922305	-0.369989	0.111630
409	292206													9.316316	-0.504312	3.436945	0.392684	-0.827332	0.401648	-0.057628	0.413736	0.908571	-0.917866	-0.379928	0.114790
410	292373													9.423712	-0.511320	3.543414	0.403931	-0.823248	0.398877	-0.058257	0.411997	0.909321	-0.912932	-0.390541	0.118458
411	292539													9.325706	-0.474485	3.623973	0.416173	-0.818606	0.395832	-0.058749	0.410206	0.910099	-0.907385	-0.402014	0.122625
412	292706													8.948419	-0.459248	3.660016	0.429057	-0.813464	0.392666	-0.059168	0.408469	0.910852	-0.901337	-0.414041	0.127126
413	292873													8.759713	-0.382058	3.746382	0.441768	-0.808191	0.389447	-0.059526	0.406740	0.911602	-0.895152	-0.425899	0.131577
414	293039													8.976752	-0.356388	3.888279	0.454508	-0.802643	0.386247	-0.060131	0.404987	0.912343	-0.888711	-0.437893	0.135806
415	293206													9.104896	-0.338931	4.072145	0.467800	-0.796508	0.383065	-0.061084	0.403239	0.913053	-0.881721	-0.450526	0.139981
416	293373													9.260982	-0.363449	4.339863	0.482146	-0.789450	0.379873	-0.062325	0.401594	0.913695	-0.873871	-0.464210	0.144425
417	293539													8.892328	-0.380941	4.591934	0.497498	-0.781360	0.376792	-0.063753	0.400251	0.914185	-0.865119	-0.478827	0.149310
418	293706													8.479581	-0.480875	4.711506	0.512980	-0.772758	0.373760	-0.065247	0.399054	0.914603	-0.855917	-0.493559	0.154287
419	293873													8.309036	-0.606262	4.864090	0.528039	-0.764066	0.370644	-0.066694	0.397793	0.915048	-0.846597	-0.507901	0.159092
420	294039													8.505071	-0.594187	5.141427	0.542913	-0.755208	0.367296	-0.068057	0.396361	0.915569	-0.837027	-0.522071	0.163792
421	294206													8.544194	-0.546430	5.520592	0.558460	-0.745518	0.363765	-0.069316	0.395046	0.916043	-0.826630	-0.536788	0.168941
422	294373													8.085953	-0.704815	5.881603	0.574345	-0.735105	0.360206	-0.070051	0.394271	0.916320	-0.815610	-0.551517	0.174953
423	294539													7.478238	-0.862200	6.198426	0.589249	-0.724956	0.356685	-0.069874	0.394090	0.916412	-0.804925	-0.564917	0.181562
424	294706													7.261351	-0.778309	6.413524	0.602372	-0.715886	0.353066	-0.068875	0.394054	0.916503	-0.795238	-0.576393	0.188061
425	294873													7.312087	-0.606781	6.550144	0.613857	-0.707808	0.349554	-0.067765	0.393918	0.916644	-0.786503	-0.586376	0.193845
426	295039													7.406643	-0.419299	6.599969	0.624237	-0.700270	0.346339	-0.067000	0.393701	0.916794	-0.778357	-0.595501	0.198844
427	295206													7.478417	-0.304323	6.703403	0.633958	-0.692845	0.343603	-0.066785	0.393588	0.916858	-0.770479	-0.604197	0.203247
428	295373													7.422127	-0.277482	6.703421	0.643098	-0.685342	0.341659	-0.067302	0.393847	0.916709	-0.762820	-0.612528	0.207157
429	295539													7.361178	-0.392589	6.629189	0.651727	-0.677779	0.340392	-0.068583	0.394296	0.916421	-0.755346	-0.620602	0.210489
430	295706													7.437454	-0.456185	6.564017	0.659896	-0.670286	0.339491	-0.070494	0.394611	0.916140	-0.748043	-0.628489	0.213151
431	295873													7.516038	-0.445880	6.538853	0.667912	-0.662545	0.339009	-0.072923	0.395058	0.915757	-0.740659	-0.636367	0.215549
432	296039													7.458029	-0.560105	6.554742	0.675984	-0.654392	0.338845	-0.075679	0.395737	0.915241	-0.733020	-0.644332	0.217988
433	296206													7.289191	-0.793816	6.646736	0.683925	-0.646145	0.338738	-0.078327	0.396592	0.914647	-0.725335	-0.652082	0.220629
434	296373													7.233325	-1.072663	6.747319	0.691492	-0.638261	0.338320	-0.080423	0.397409	0.914111	-0.717893	-0.659309	0.223474
435	296539													7.220591	-1.186607	6.844784	0.698753	-0.630907	0.337197	-0.081718	0.397882	0.913790	-0.710681	-0.666068	0.226465
436	296706													7.168616	-1.198268	6.858447	0.705749	-0.624119	0.335252	-0.082212	0.397867	0.913752	-0.703676	-0.672441	0.229484
437	296873													7.147814	-1.120281	6.849992	0.712585	-0.617792	0.332498	-0.082026	0.397312	0.914010	-0.696774	-0.678584	0.232443
438	297039													7.207254	-0.965043	6.935681	0.719487	-0.611569	0.329124	-0.081414	0.396358	0.914479	-0.689717	-0.684751	0.235384
439	297206													7.184899	-0.803014	6.966256	0.726799	-0.604884	0.325389	-0.080604	0.395354	0.914985	-0.682104	-0.691238	0.238587
440	297373													7.088162	-0.677773	7.033048	0.734455	-0.597598	0.321641	-0.079892	0.394508	0.915413	-0.673939	-0.698026	0.242005
441	297539													6.920432	-0.637192	7.111212	0.742424	-0.589649	0.317994	-0.079525	0.393743	0.915774	-0.665193	-0.705182	0.245432
442	297706													6.851809	-0.580315	7.311292	0.750579	-0.581134	0.314506	-0.079608	0.392968	0.916100	-0.655968	-0.712642	0.248691
443	297873													6.727139	-0.701894	7.682303	0.759053	-0.571798	0.311263	-0.080357	0.392166	0.916378	-0.646050	-0.720592	0.251727
444	298039													6.544813	-0.862867	8.007879	0.767640	-0.562068	0.307909	-0.081461	0.390976	0.916789	-0.635682	-0.728847	0.254342
445	298206													6.076335	-0.962715	8.243068	0.775947	-0.552395	0.304574	-0.082707	0.389578	0.917272	-0.625352	-0.736946	0.256605
446	298373													5.662232	-1.157346	8.375718	0.783132	-0.543928	0.301408	-0.083620	0.388180	0.917782	-0.616208	-0.743948	0.258513
447	298539													5.634696	-1.283767	8.402239	0.789006	-0.537232	0.298080	-0.083750	0.386592	0.918440	-0.608651	-0.749619	0.260030
448	298706													5.758048	-1.259811	8.370223	0.793873	-0.532254	0.294061	-0.082689	0.384602	0.919371	-0.602435	-0.754180	0.261314
449	298873													5.959678	-0.834780	8.353028	0.798237	-0.528091	0.289721	-0.080718	0.382868	0.920270	-0.596911	-0.757979	0.262993
450	299039													5.862432	-0.554603	8.307823	0.802237	-0.523934	0.286196	-0.078782	0.382287	0.920679	-0.591784	-0.761150	0.265408
451	299206													5.751537	-0.616002	8.201638	0.805592	-0.520081	0.283792	-0.077362	0.382558	0.920687	-0.587398	-0.763653	0.267951
452	299373													5.792757	-0.712859	8.075879	0.808253	-0.516961	0.281919	-0.076245	0.382862	0.920654	-0.583878	-0.765616	0.270034
453	299539													6.034304	-0.577103	7.948684	0.810538	-0.514304	0.280214	-0.075191	0.383102	0.920641	-0.580840	-0.767284	0.271847
454	299706													6.103173	-0.495505	7.922067	0.812786	-0.511590	0.278666	-0.074148	0.383607	0.920515	-0.577824	-0.768845	0.273857
455	299873													6.181708	-0.400642	7.948406	0.815094	-0.508652	0.277301	-0.073204	0.384392	0.920263	-0.574685	-0.770400	0.276080
456	300039													6.144309	-0.346824	7.994054	0.817459	-0.505438	0.276212	-0.072518	0.385416	0.919889	-0.571403	-0.772002	0.278408
457	300206													6.078711	-0.364717	8.014055	0.819766	-0.502159	0.275354	-0.072116	0.386461	0.919482	-0.568139	-0.773618	0.280594
458	300373													6.064490	-0.413536	8.035634	0.821946	-0.498997	0.274604	-0.071965	0.387279	0.919149	-0.565001	-0.775253	0.282412
459	300539													6.036244	-0.448546	8.090914	0.824083	-0.495880	0.273842	-0.072043	0.387748	0.918946	-0.561869	-0.777016	0.283812
460	300706													5.984639	-0.445320	8.153049	0.826279	-0.492757	0.272862	-0.072132	0.387874	0.918886	-0.558624	-0.778938	0.284948
461	300873													5.958819	-0.456463	8.206418	0.828546	-0.489599	0.271671	-0.072202	0.387721	0.918945	-0.555247	-0.781003	0.285894
462	301039													5.759706	-0.559096	8.267979	0.830882	-0.486401	0.270276	-0.072233	0.387326	0.919109	-0.551740	-0.783194	0.286688
463	301206													5.715803	-0.510446	8.338668	0.833139	-0.483375	0.268754	-0.072255	0.386642	0.919395	-0.548324	-0.785402	0.287200
464	301373													5.630414	-0.456565	8.392031	0.835381	-0.480291	0.267318	-0.072511	0.385783	0.919736	-0.544867	-0.787713	0.287449
465	301539													5.522584	-0.500373	8.423416	0.837580	-0.477247	0.265885	-0.072921	0.384669	0.920170	-0.541426	-0.790104	0.287390
466	301706													5.449074	-0.582577	8.490432	0.839680	-0.474375	0.264396	-0.073405	0.383241	0.920727	-0.538097	-0.792524	0.286978
467	301873													5.352340	-0.656602	8.524343	0.841638	-0.471744	0.262874	-0.073933	0.381532	0.921394	-0.534957	-0.794915	0.286235
468	302039													5.380808	-0.701216	8.587625	0.843342	-0.469501	0.261424	-0.074413	0.379764	0.922085	-0.532200	-0.797087	0.285334
469	302206													5.479989	-0.680513	8.690759	0.845032	-0.467228	0.260037	-0.074684	0.378411	0.922620	-0.529475	-0.799064	0.284875
470	302373													5.339670	-0.709754	8.821884	0.846672	-0.464861	0.258941	-0.075009	0.377501	0.922966	-0.526802	-0.800873	0.284751
471	302539													5.164441	-0.812707	8.934148	0.848019	-0.462811	0.258206	-0.075520	0.376711	0.923247	-0.524558	-0.802431	0.284506
472	302706													5.094126	-0.861576	8.972372	0.848834	-0.461526	0.257825	-0.075990	0.376113	0.923452	-0.523169	-0.803450	0.284186
473	302873													5.064671	-0.966032	8.947989	0.849150	-0.461098	0.257553	-0.076135	0.375690	0.923613	-0.522636	-0.803894	0.283911
474	303039													5.146732	-0.804508	8.862333	0.849095	-0.461355	0.257273	-0.075869	0.375478	0.923721	-0.522763	-0.803846	0.283814
475	303206													5.207010	-0.687374	8.769561	0.848765	-0.461927	0.257334	-0.075670	0.375549	0.923709	-0.523328	-0.803484	0.283799
476	303373													5.317462	-0.669627	8.695374	0.848223	-0.462706	0.257723	-0.075692	0.375704	0.923643	-0.524203	-0.802963	0.283658
477	303539													5.425522	-0.681549	8.617792	0.847559	-0.463635	0.258237	-0.075844	0.375781	0.923600	-0.525254	-0.802391	0.283332
478	303706													5.492091	-0.698220	8.542897	0.846926	-0.464433	0.258877	-0.076195	0.375842	0.923546	-0.526222	-0.801901	0.282923
479	303873													5.486622	-0.806500	8.476742	0.846341	-0.465160	0.259486	-0.076555	0.375879	0.923501	-0.527111	-0.801462	0.282512
480	304039													5.506862	-0.740794	8.477489	0.845777	-0.465972	0.259869	-0.076723	0.375785	0.923526	-0.527992	-0.801034	0.282079
481	304206													5.564823	-0.579782	8.547712	0.845293	-0.466646	0.260231	-0.076825	0.375835	0.923496	-0.528750	-0.800618	0.281841
482	304373													5.505856	-0.532666	8.604318	0.844809	-0.467056	0.261068	-0.077264	0.376317	0.923264	-0.529460	-0.800153	0.281829
483	304539													5.410788	-0.591130	8.594862	0.844143	-0.467416	0.262574	-0.078197	0.377184	0.922831	-0.530384	-0.799534	0.281847
484	304706													5.476021	-0.745130	8.594090	0.843215	-0.468058	0.264406	-0.079310	0.378151	0.922340	-0.531694	-0.798701	0.281741
485	304873													5.510467	-0.851623	8.689550	0.842155	-0.469008	0.266096	-0.080211	0.379024	0.921904	-0.533237	-0.797730	0.281577
486	305039													5.422556	-0.852845	8.785874	0.840767	-0.470650	0.267581	-0.080640	0.379861	0.921522	-0.535358	-0.796363	0.281422
487	305206													5.224733	-0.783048	8.850799	0.838869	-0.473167	0.269095	-0.080699	0.380789	0.921134	-0.538319	-0.794426	0.281248
488	305373													5.131557	-0.687467	9.011408	0.835899	-0.477279	0.271069	-0.080608	0.381756	0.920741	-0.542933	-0.791497	0.280637
489	305539													5.540046	-0.549829	9.006235	0.832089	-0.482368	0.273769	-0.080813	0.382888	0.920253	-0.548723	-0.787857	0.279615
490	305706													5.501618	-0.613250	8.895408	0.827970	-0.487544	0.277068	-0.081565	0.384125	0.919671	-0.554809	-0.784059	0.278277
491	305873													4.998341	-0.717670	8.990190	0.823180	-0.493474	0.280816	-0.082634	0.385195	0.919128	-0.561735	-0.779813	0.276307
492	306039													4.813361	-0.971989	9.072476	0.816683	-0.501661	0.285246	-0.083265	0.386679	0.918448	-0.571048	-0.773831	0.274023
493	306206													5.399518	-1.162019	8.885266	0.808588	-0.511969	0.289953	-0.082987	0.388638	0.917646	-0.582493	-0.766060	0.271761
494	306373													5.741343	-1.184981	8.576764	0.799869	-0.523187	0.294085	-0.081732	0.390481	0.916976	-0.594584	-0.757496	0.269572
495	306540													5.938010	-1.059066	8.276415	0.791040	-0.534635	0.297355	-0.079592	0.391989	0.916520	-0.606564	-0.748672	0.267526
496	306706													5.661892	-0.897867	8.213364	0.782164	-0.546132	0.299933	-0.076884	0.393101	0.916275	-0.618311	-0.739737	0.265480
497	306873													5.491682	-0.704207	8.204065	0.772066	-0.558844	0.302667	-0.073815	0.394161	0.916072	-0.631241	-0.729610	0.263067
498	307040													5.909197	-0.471881	8.122427	0.760226	-0.572920	0.306299	-0.070753	0.395657	0.915669	-0.645795	-0.717787	0.260252
499	307206													6.448223	-0.426003	7.861816	0.747574	-0.587012	0.310725	-0.068290	0.397420	0.915092	-0.660659	-0.705318	0.257014
500	307373													6.721853	-0.392821	7.610058	0.734765	-0.600501	0.315467	-0.066583	0.398975	0.914541	-0.675046	-0.692978	0.253169
501	307540													6.563697	-0.377838	7.550653	0.721747	-0.613503	0.320461	-0.065658	0.400216	0.914066	-0.689036	-0.680765	0.248573
502	307706													6.572587	-0.371019	7.402668	0.707573	-0.626932	0.326031	-0.065195	0.401497	0.913537	-0.703626	-0.667650	0.243216
503	307873													6.797368	-0.451780	7.146604	0.692133	-0.640758	0.332236	-0.065141	0.402975	0.912890	-0.718825	-0.653483	0.237172
504	308040													7.117023	-0.566405	6.899659	0.675745	-0.654757	0.338618	-0.065383	0.404320	0.912277	-0.734230	-0.638607	0.230407
505	308206													7.214326	-0.592211	6.750419	0.658790	-0.668636	0.344850	-0.065678	0.405513	0.911727	-0.749455	-0.623285	0.223233
506	308373													7.220315	-0.603399	6.641231	0.640600	-0.682904	0.351104	-0.065787	0.406751	0.911167	-0.765051	-0.606792	0.215638
507	308540													7.612861	-0.670956	6.278116	0.621481	-0.697288	0.357144	-0.065736	0.407851	0.910679	-0.780667	-0.589447	0.207634
508	308706													7.790551	-0.673337	5.900064	0.602154	-0.711300	0.362577	-0.065535	0.408572	0.910370	-0.795686	-0.571944	0.199409
509	308873													7.997014	-0.651798	5.697496	0.583230	-0.724454	0.367435	-0.065267	0.409079	0.910162	-0.809681	-0.554815	0.191304
510	309040													7.884531	-0.594770	5.664854	0.564180	-0.737104	0.371993	-0.064723	0.409675	0.909932	-0.823111	-0.537443	0.183423
511	309206													7.963065	-0.569435	5.434818	0.544356	-0.749593	0.376546	-0.064074	0.410415	0.909645	-0.836404	-0.519297	0.175382
512	309373													8.341223	-0.479685	5.051371	0.524314	-0.761573	0.380923	-0.063474	0.411143	0.909358	-0.849156	-0.500968	0.167228
513	309540													8.604894	-0.475455	4.709418	0.504956	-0.772472	0.385105	-0.063164	0.411898	0.909038	-0.860831	-0.483349	0.159198
514	309706													8.916201	-0.463818	4.508551	0.486928	-0.782049	0.388973	-0.063124	0.412660	0.908695	-0.871158	-0.467023	0.151570
515	309873													8.538129	-0.531648	4.453703	0.469838	-0.790559	0.392771	-0.063113	0.413717	0.908215	-0.880494	-0.451503	0.144486
516	310040													8.421933	-0.664838	4.276324	0.452096	-0.799022	0.396450	-0.062912	0.414795	0.907737	-0.889748	-0.435326	0.137259
517	310206													8.873716	-0.640140	3.975128	0.434101	-0.807328	0.399721	-0.062582	0.415611	0.907387	-0.898688	-0.418913	0.129893
518	310373													9.375751	-0.566666	3.782111	0.416989	-0.814906	0.402553	-0.062195	0.416275	0.907109	-0.906781	-0.403291	0.122899
519	310540													9.362354	-0.598237	3.723434	0.401615	-0.821342	0.405096	-0.061709	0.417062	0.906781	-0.913727	-0.389175	0.116814
520	310706													8.729052	-0.668893	3.635266	0.386234	-0.827581	0.407348	-0.060911	0.417770	0.906509	-0.920388	-0.374936	0.110948
521	310873													8.690730	-0.709088	3.391383	0.369466	-0.834277	0.409239	-0.059853	0.418119	0.906418	-0.927315	-0.359385	0.104547
522	311040													9.209685	-0.617045	3.188743	0.352030	-0.841096	0.410649	-0.058720	0.418023	0.906537	-0.934145	-0.343241	0.097767
523	311206													9.294850	-0.622875	3.165198	0.335023	-0.847459	0.411792	-0.057646	0.417795	0.906711	-0.940445	-0.327507	0.091118
524	311373													8.967742	-0.628412	3.090440	0.317321	-0.853809	0.412696	-0.056252	0.417475	0.906946	-0.946649	-0.311007	0.084445
525	311540													9.096665	-0.450158	2.899768	0.298658	-0.860088	0.413583	-0.054479	0.417291	0.907139	-0.952804	-0.293456	0.077771
526	311706													9.064004	-0.444488	2.734761	0.279435	-0.866013	0.414654	-0.052686	0.417377	0.907205	-0.958718	-0.275351	0.071003
527	311873													8.926764	-0.486867	2.586081	0.259280	-0.871724	0.415777	-0.051130	0.417506	0.907234	-0.964448	-0.256487	0.063680
528	312040													8.931573	-0.491904	2.424458	0.237432	-0.877456	0.416770	-0.049719	0.417499	0.907316	-0.970131	-0.236147	0.055501
529	312206													9.493140	-0.485737	2.143500	0.214744	-0.882941	0.417492	-0.048396	0.417320	0.907470	-0.975471	-0.215079	0.046886
530	312373													9.550815	-0.463906	2.029339	0.192645	-0.887797	0.417976	-0.047052	0.417108	0.907638	-0.980140	-0.194518	0.038581
531	312540													9.368322	-0.542422	1.869218	0.170421	-0.892232	0.418186	-0.045322	0.416848	0.907846	-0.984329	-0.173669	0.030602
532	312706													9.422478	-0.447157	1.527311	0.147706	-0.896269	0.418192	-0.042974	0.416614	0.908067	-0.988097	-0.152099	0.023020
533	312873													9.710375	-0.340959	1.105044	0.125210	-0.899710	0.418144	-0.040268	0.416505	0.908241	-0.991313	-0.130559	0.015921
534	313040													9.870361	-0.267331	0.864150	0.104208	-0.902413	0.418081	-0.037567	0.416498	0.908360	-0.993846	-0.110364	0.009501
535	313206													9.691628	-0.234847	0.750783	0.084084	-0.904524	0.418051	-0.034866	0.416610	0.908417	-0.995848	-0.090959	0.003493
536	313373													9.626812	-0.137706	0.563815	0.063878	-0.906088	0.418239	-0.031703	0.417041	0.908335	-0.997454	-0.071282	-0.002086
537	313540													9.792223	-0.103564	0.237555	0.043843	-0.907053	0.418727	-0.028221	0.417838	0.908083	-0.998640	-0.051630	-0.007279
538	313706													9.885140	-0.079772	-0.055587	0.024727	-0.907509	0.419305	-0.024865	0.418745	0.907764	-0.999385	-0.032872	-0.012211
539	313873													9.663937	-0.052229	-0.189423	0.006577	-0.907482	0.420040	-0.021683	0.419821	0.907348	-0.999743	-0.015075	-0.016916
540	314040													9.480076	-0.130471	-0.333296	-0.011897	-0.907103	0.420741	-0.018624	0.420899	0.906916	-0.999756	0.002954	-0.021902
541	314206													9.553082	-0.205704	-0.623305	-0.030778	-0.906495	0.421094	-0.015875	0.421684	0.906604	-0.999400	0.021218	-0.027369
542	314373													9.778835	-0.170002	-0.959732	-0.049687	-0.905794	0.420795	-0.013607	0.421890	0.906545	-0.998672	0.039318	-0.033287
543	314540													9.948087	-0.002326	-1.134910	-0.067554	-0.904963	0.420093	-0.011464	0.421731	0.906649	-0.997650	0.056431	-0.038864
544	314706													9.624826	0.010808	-1.197208	-0.084383	-0.903801	0.419552	-0.009046	0.421731	0.906676	-0.996392	0.072713	-0.043763
545	314873													9.307035	-0.061242	-1.254170	-0.101689	-0.902310	0.418923	-0.006403	0.421690	0.906717	-0.994796	0.089521	-0.048658
546	315040													9.775667	-0.018236	-1.443032	-0.119530	-0.900570	0.417954	-0.003912	0.421397	0.906868	-0.992823	0.106762	-0.053893
547	315206													10.151044	0.067251	-1.540956	-0.136117	-0.898715	0.416874	-0.001831	0.421018	0.907050	-0.990691	0.122702	-0.058954
548	315373													10.038893	0.213288	-1.583900	-0.150905	-0.896721	0.416075	0.000048	0.420889	0.907112	-0.988548	0.136907	-0.063471
549	315540													9.852789	0.182357	-1.703352	-0.164427	-0.894558	0.415608	0.001593	0.421102	0.907012	-0.986388	0.149799	-0.067816
550	315706													9.759251	0.102733	-1.867412	-0.177024	-0.892371	0.415133	0.002478	0.421389	0.906876	-0.984203	0.161568	-0.072385
551	315873													9.851440	0.150748	-1.907482	-0.188849	-0.890194	0.414596	0.002816	0.421701	0.906731	-0.982002	0.172403	-0.077132
552	316040													9.839375	0.221224	-1.785857	-0.199219	-0.887978	0.414496	0.003078	0.422405	0.906402	-0.979950	0.181848	-0.081418
553	316206													9.159319	0.057568	-1.866668	-0.209408	-0.885533	0.414704	0.003399	0.423445	0.905915	-0.977822	0.191115	-0.085663
554	316373													9.068456	-0.007228	-2.102879	-0.220886	-0.882689	0.414813	0.003790	0.424539	0.905402	-0.975292	0.201562	-0.090430
555	316540													9.231671	-0.062394	-2.281779	-0.233162	-0.879543	0.414777	0.004227	0.425613	0.904896	-0.972429	0.212740	-0.095519
556	316706													9.377974	-0.091736	-2.483660	-0.245541	-0.876318	0.414459	0.004751	0.426455	0.904496	-0.969374	0.224060	-0.100549
557	316873													9.270856	-0.081759	-2.653758	-0.257664	-0.873105	0.413880	0.005641	0.426977	0.904245	-0.966218	0.235326	-0.105092
558	317040													9.080039	-0.099645	-2.742850	-0.269929	-0.869790	0.413043	0.007421	0.427074	0.904186	-0.962852	0.247131	-0.108825
559	317206													9.239774	-0.071667	-2.905450	-0.282663	-0.866364	0.411723	0.009620	0.426645	0.904368	-0.959171	0.259592	-0.112263
560	317373													9.678255	-0.001413	-3.143972	-0.295021	-0.863108	0.409887	0.011437	0.425760	0.904764	-0.955422	0.271612	-0.115737
561	317540													9.819448	0.184505	-3.241081	-0.305966	-0.860203	0.407964	0.012858	0.424742	0.905223	-0.951956	0.282213	-0.118896
562	317706													9.789686	0.332484	-3.318659	-0.315195	-0.857615	0.406385	0.014283	0.423877	0.905607	-0.948920	0.291247	-0.121355
563	317873													9.602407	0.331166	-3.383630	-0.322867	-0.855249	0.405347	0.015719	0.423379	0.905816	-0.946314	0.298830	-0.123252
564	318040													9.459096	0.315379	-3.467738	-0.329624	-0.853021	0.404604	0.016851	0.423171	0.905893	-0.943962	0.305422	-0.125113
565	318206													9.548412	0.386491	-3.536310	-0.335513	-0.850973	0.404075	0.017552	0.423217	0.905858	-0.941872	0.311020	-0.127059
566	318373													9.546518	0.396822	-3.593360	-0.340155	-0.849187	0.403951	0.018008	0.423605	0.905668	-0.940197	0.315342	-0.128800
567	318540													9.453311	0.357788	-3.619456	-0.343714	-0.847637	0.404192	0.018398	0.424255	0.905356	-0.938894	0.318620	-0.130227
568	318706													9.333218	0.310820	-3.664123	-0.346335	-0.846325	0.404705	0.018684	0.425095	0.904956	-0.937925	0.320979	-0.131412
569	318873													9.151292	0.237886	-3.684145	-0.348370	-0.845195	0.405320	0.018937	0.425973	0.904538	-0.937166	0.322789	-0.132390
570	319040													9.110690	0.193802	-3.695358	-0.350035	-0.844272	0.405809	0.019164	0.426671	0.904204	-0.936541	0.324279	-0.133170
571	319206													9.170078	0.195370	-3.687038	-0.351342	-0.843581	0.406114	0.019280	0.427157	0.903972	-0.936048	0.325433	-0.133814
572	319373													9.178496	0.213807	-3.617987	-0.352110	-0.843141	0.406364	0.019351	0.427518	0.903800	-0.935759	0.326101	-0.134218
573	319540													9.077932	0.230980	-3.587085	-0.352446	-0.842868	0.406639	0.019521	0.427806	0.903660	-0.935628	0.326429	-0.134325
574	319706													8.992916	0.249301	-3.584157	-0.352638	-0.842660	0.406903	0.019813	0.428016	0.903554	-0.935550	0.326689	-0.134239
575	319873													8.965256	0.227701	-3.570920	-0.352860	-0.842460	0.407126	0.019964	0.428236	0.903446	-0.935463	0.326918	-0.134289
576	320040													9.021167	0.200471	-3.535692	-0.353185	-0.842295	0.407184	0.019860	0.428385	0.903378	-0.935343	0.327146	-0.134571
577	320206													9.110781	0.196770	-3.529159	-0.353399	-0.842236	0.407122	0.019507	0.428475	0.903343	-0.935269	0.327183	-0.134993
578	320373													9.180720	0.193433	-3.557010	-0.353369	-0.842358	0.406894	0.018807	0.428471	0.903360	-0.935295	0.326872	-0.135567
579	320540													9.162998	0.184092	-3.530585	-0.352923	-0.842694	0.406586	0.017811	0.428418	0.903405	-0.935483	0.326074	-0.136189
580	320706													9.022911	0.180399	-3.494610	-0.352235	-0.843144	0.406248	0.016733	0.428324	0.903470	-0.935762	0.325032	-0.136763
581	320873													8.995475	0.148590	-3.494153	-0.351555	-0.843581	0.405931	0.015721	0.428228	0.903534	-0.936035	0.324024	-0.137284
582	321040													9.086344	0.191507	-3.498204	-0.350868	-0.843975	0.405707	0.015048	0.428113	0.903600	-0.936304	0.323149	-0.137511
583	321206													9.222098	0.183164	-3.451524	-0.350004	-0.844337	0.405700	0.014717	0.428084	0.903619	-0.936632	0.322241	-0.137405
584	321373													9.233217	0.141257	-3.398387	-0.348767	-0.844787	0.405829	0.014416	0.428132	0.903601	-0.937099	0.320997	-0.137139
585	321540													9.212588	0.150913	-3.392965	-0.347236	-0.845332	0.406007	0.014078	0.428198	0.903575	-0.937672	0.319470	-0.136785
586	321706													9.180272	0.164880	-3.352901	-0.345357	-0.845962	0.406297	0.013710	0.428341	0.903513	-0.938371	0.317605	-0.136332
587	321873													9.121622	0.183509	-3.340032	-0.343247	-0.846644	0.406663	0.013319	0.428537	0.903426	-0.939151	0.315515	-0.135817
588	322040													9.071537	0.154541	-3.321709	-0.341129	-0.847278	0.407125	0.012935	0.428833	0.903291	-0.939927	0.313405	-0.135328
589	322206													9.103694	0.106691	-3.323081	-0.339090	-0.847896	0.407542	0.012517	0.429103	0.903169	-0.940671	0.311356	-0.134892
590	322373													9.191323	0.125795	-3.364410	-0.336998	-0.848569	0.407877	0.011994	0.429314	0.903076	-0.941429	0.309227	-0.134500
591	322540													9.261669	0.150788	-3.375141	-0.334591	-0.849342	0.408247	0.011428	0.429528	0.902981	-0.942294	0.306795	-0.134010
592	322706													9.294912	0.120057	-3.369883	-0.331763	-0.850203	0.408764	0.010842	0.429841	0.902840	-0.943300	0.303961	-0.133387
593	322873													9.306092	0.109082	-3.379858	-0.328426	-0.851206	0.409372	0.010338	0.430148	0.902699	-0.944473	0.300702	-0.132472
594	323040													9.291460	0.090717	-3.387913	-0.324583	-0.852338	0.410081	0.009922	0.430463	0.902554	-0.945805	0.297023	-0.131264
595	323207													9.291443	0.076410	-3.372237	-0.320262	-0.853618	0.410814	0.009511	0.430736	0.902428	-0.947281	0.292921	-0.129830
596	323373													9.365474	0.141178	-3.366981	-0.315377	-0.855038	0.411639	0.009128	0.431023	0.902295	-0.948923	0.288321	-0.128130
597	323540													9.397475	0.121625	-3.346614	-0.309715	-0.856604	0.412681	0.008781	0.431427	0.902105	-0.950789	0.283019	-0.126098
598	323707													9.349553	0.075088	-3.324700	-0.303344	-0.858354	0.413778	0.008376	0.431820	0.901921	-0.952844	0.277058	-0.123800
599	323873													9.400074	0.101105	-3.305264	-0.296399	-0.860243	0.414885	0.007942	0.432170	0.901757	-0.955031	0.270575	-0.121262
600	324040													9.418051	0.104874	-3.222926	-0.288751	-0.862262	0.416085	0.007563	0.432529	0.901588	-0.957374	0.263481	-0.118371
601	324207													9.443975	0.094663	-3.167566	-0.280460	-0.864377	0.417367	0.007168	0.432920	0.901404	-0.959839	0.255800	-0.115221
602	324373													9.472004	0.078656	-3.089132	-0.271487	-0.866619	0.418647	0.006802	0.433246	0.901250	-0.962418	0.247525	-0.111725
603	324540													9.566846	0.059450	-2.968528	-0.261701	-0.868959	0.420027	0.006363	0.433631	0.901068	-0.965128	0.238483	-0.107952
604	324707													9.598445	0.072776	-2.838304	-0.250928	-0.871482	0.421372	0.005688	0.433964	0.900912	-0.967989	0.228461	-0.103937
605	324873													9.592425	0.071290	-2.744674	-0.239284	-0.874107	0.422705	0.004853	0.434270	0.900770	-0.970937	0.217592	-0.099672
606	325040													9.612872	0.046469	-2.682501	-0.226793	-0.876753	0.424109	0.003995	0.434615	0.900608	-0.973935	0.205946	-0.095065
607	325207													9.645276	0.070174	-2.570708	-0.213396	-0.879446	0.425484	0.003122	0.434900	0.900474	-0.976961	0.193486	-0.090060
608	325373													9.733364	0.072279	-2.475904	-0.199094	-0.882105	0.426909	0.002099	0.435246	0.900309	-0.979978	0.180142	-0.084804
609	325540													9.855824	0.038355	-2.379318	-0.183591	-0.884822	0.428233	0.000872	0.435491	0.900193	-0.983002	0.165640	-0.079180
610	325707													9.891032	0.003077	-2.222231	-0.166624	-0.887567	0.429490	-0.000601	0.435670	0.900106	-0.986020	0.149721	-0.073127
611	325873													9.827668	-0.087053	-2.057887	-0.148280	-0.890331	0.430492	-0.002245	0.435606	0.900134	-0.988943	0.132505	-0.066590
612	326040													9.721306	-0.077938	-1.901803	-0.128771	-0.893010	0.431220	-0.003925	0.435295	0.900279	-0.991667	0.114238	-0.059558
613	326207													9.530695	-0.107756	-1.732621	-0.108379	-0.895491	0.431682	-0.005524	0.434776	0.900522	-0.994094	0.095213	-0.052067
614	326373													9.356563	-0.155374	-1.501151	-0.087809	-0.897742	0.431682	-0.007001	0.433901	0.900933	-0.996113	0.076087	-0.044385
615	326540													9.450628	-0.124741	-1.264646	-0.067318	-0.899739	0.431204	-0.008534	0.432688	0.901503	-0.997695	0.057008	-0.036807
616	326707													9.577443	-0.045201	-1.019394	-0.046585	-0.901447	0.430375	-0.010088	0.431245	0.902178	-0.998863	0.037686	-0.029184
617	326873													9.694467	-0.029143	-0.732467	-0.025306	-0.902753	0.429414	-0.011714	0.429789	0.902853	-0.999611	0.017818	-0.021451
618	327040													9.456300	-0.093820	-0.452034	-0.003593	-0.903635	0.428288	-0.013261	0.428296	0.903541	-0.999906	-0.002433	-0.013522
619	327207													9.300378	-0.108003	-0.237891	0.017482	-0.904132	0.426896	-0.014617	0.426684	0.904283	-0.999740	-0.022048	-0.005757
620	327373													9.452862	-0.079860	-0.036966	0.038026	-0.904276	0.425252	-0.015861	0.424960	0.905073	-0.999151	-0.041161	0.001817
621	327540													9.794037	-0.072958	0.240450	0.058626	-0.904079	0.423326	-0.017318	0.423071	0.905931	-0.998130	-0.060442	0.009146
622	327707													9.921913	0.003275	0.414015	0.080241	-0.903361	0.421308	-0.019118	0.421199	0.906767	-0.996592	-0.080814	0.016527
623	327873													9.595898	-0.042064	0.589275	0.102873	-0.901997	0.419306	-0.021007	0.419479	0.907522	-0.994473	-0.102168	0.024205
624	328040													9.133003	-0.194632	0.906191	0.125714	-0.900092	0.417169	-0.023036	0.417743	0.908273	-0.991799	-0.123793	0.031782
625	328207													9.266830	-0.158339	1.207512	0.147724	-0.897999	0.414457	-0.025535	0.415452	0.909257	-0.988699	-0.144902	0.038441
626	328373													9.459010	0.039103	1.410396	0.169350	-0.895539	0.411498	-0.028267	0.412944	0.910318	-0.985150	-0.165794	0.044618
627	328540													9.656776	0.066291	1.648524	0.191240	-0.892358	0.408809	-0.031177	0.410763	0.911209	-0.981048	-0.187005	0.050734
628	328707													10.013888	-0.096251	2.120586	0.214002	-0.888362	0.406221	-0.034402	0.408743	0.912001	-0.976227	-0.209145	0.056910
629	328873													9.719480	-0.222191	2.607062	0.237694	-0.883572	0.403487	-0.037683	0.406691	0.912788	-0.970609	-0.232169	0.063372
630	329040													9.223817	-0.277689	2.919318	0.261067	-0.878228	0.400698	-0.040601	0.404736	0.913532	-0.964466	-0.254762	0.070006
631	329207													8.996307	-0.331573	3.050174	0.283622	-0.872518	0.397833	-0.043058	0.402863	0.914247	-0.957969	-0.276430	0.076692
632	329373													8.789338	-0.374211	3.312123	0.305373	-0.866467	0.394946	-0.045644	0.400962	0.914957	-0.951138	-0.297431	0.082894
633	329540													8.811764	-0.453726	3.658309	0.325941	-0.860392	0.391775	-0.048662	0.398587	0.915839	-0.944137	-0.317574	0.088048
634	329707													8.854671	-0.321998	3.851522	0.345326	-0.854294	0.388500	-0.051641	0.396042	0.916779	-0.937061	-0.336650	0.092647
635	329873													8.819381	-0.187301	3.945592	0.363860	-0.847863	0.385662	-0.054463	0.393969	0.917509	-0.929860	-0.354849	0.097172
636	330040													8.893989	-0.184060	3.976916	0.381886	-0.840896	0.383479	-0.057358	0.392563	0.917935	-0.922428	-0.372542	0.101682
637	330207													9.047268	-0.409609	4.188571	0.399828	-0.833275	0.381825	-0.060664	0.391601	0.918133	-0.914581	-0.390258	0.106023
638	330373													8.945395	-0.638880	4.445431	0.417810	-0.825191	0.380124	-0.063959	0.390640	0.918319	-0.906280	-0.407995	0.110435
639	330540													8.660150	-0.678544	4.611577	0.435278	-0.816919	0.378385	-0.066703	0.389871	0.918450	-0.897821	-0.425021	0.115211
640	330707													8.594502	-0.688773	4.718657	0.452005	-0.808609	0.376621	-0.068847	0.389330	0.918522	-0.889355	-0.441105	0.120309
641	330873													8.666261	-0.710720	4.811723	0.468191	-0.800221	0.374758	-0.070541	0.388912	0.918571	-0.880807	-0.456503	0.125637
642	331040													8.655013	-0.783413	4.968578	0.484314	-0.791513	0.372756	-0.071656	0.388740	0.918557	-0.871955	-0.471580	0.131556
643	331207													8.617105	-0.856376	5.126552	0.500334	-0.782541	0.370534	-0.072001	0.388865	0.918477	-0.862834	-0.486224	0.138218
644	331373													8.328533	-0.990039	5.209615	0.516248	-0.773368	0.367952	-0.071775	0.389050	0.918416	-0.853426	-0.500541	0.145338
645	331540													7.983644	-0.932525	5.372882	0.531411	-0.764533	0.364816	-0.071381	0.388712	0.918590	-0.844101	-0.514190	0.151992
646	331707													7.946155	-0.794768	5.549194	0.545279	-0.756399	0.361292	-0.070930	0.387825	0.919000	-0.835248	-0.526738	0.157821
647	331873													8.059145	-0.640933	5.661684	0.558202	-0.748629	0.357723	-0.070445	0.386825	0.919458	-0.826709	-0.538443	0.163190
648	332040													8.080544	-0.565933	5.725866	0.570685	-0.740736	0.354442	-0.070003	0.386175	0.919765	-0.818180	-0.549708	0.168531
649	332207													7.949210	-0.611966	5.829371	0.582810	-0.732608	0.351594	-0.069571	0.386100	0.919830	-0.809625	-0.560547	0.174054
650	332373													7.736694	-0.666838	5.910439	0.594408	-0.724473	0.349024	-0.069295	0.386263	0.919782	-0.801172	-0.570911	0.179396
651	332540													7.733838	-0.623391	6.062927	0.605086	-0.716757	0.346599	-0.069527	0.386105	0.919831	-0.793119	-0.580675	0.183792
652	332707													7.841410	-0.549253	6.185375	0.615092	-0.709251	0.344418	-0.070370	0.385701	0.919936	-0.785308	-0.590083	0.187332
653	332873													7.847358	-0.528435	6.270215	0.624690	-0.701681	0.342644	-0.071714	0.385390	0.919963	-0.777572	-0.599264	0.190430
654	333040													7.723041	-0.620743	6.303449	0.634004	-0.693955	0.341271	-0.073401	0.385308	0.919864	-0.769839	-0.608247	0.193350
655	333207													7.694414	-0.767144	6.494800	0.642925	-0.686280	0.340099	-0.075142	0.385377	0.919695	-0.762234	-0.616850	0.196200
656	333373													7.765492	-0.879830	6.673279	0.651664	-0.678570	0.338935	-0.076690	0.385611	0.919469	-0.754621	-0.625178	0.199249
657	333540													7.496676	-1.023048	6.810027	0.660081	-0.671058	0.337601	-0.077786	0.385943	0.919237	-0.747156	-0.633031	0.202554
658	333707													7.300550	-1.089809	6.834009	0.667869	-0.664158	0.335926	-0.078364	0.386086	0.919128	-0.740142	-0.640181	0.205809
659	333873													7.149940	-1.047861	6.838321	0.674869	-0.658115	0.333820	-0.078482	0.385792	0.919242	-0.733752	-0.646567	0.208709
660	334040													7.124000	-0.955580	6.908298	0.681177	-0.652798	0.331440	-0.078292	0.385165	0.919521	-0.727920	-0.652306	0.211257
661	334207													7.236798	-0.810448	6.929690	0.687136	-0.647819	0.328900	-0.077910	0.384387	0.919879	-0.722339	-0.657706	0.213654
662	334373													7.250051	-0.707560	6.941921	0.693117	-0.642700	0.326384	-0.077590	0.383640	0.920218	-0.716637	-0.663142	0.216040
663	334540													7.178567	-0.651788	6.933596	0.699222	-0.637257	0.324025	-0.077518	0.382987	0.920496	-0.710690	-0.668748	0.218393
664	334707													7.002996	-0.664707	6.925945	0.705448	-0.631479	0.321835	-0.077779	0.382363	0.920733	-0.704481	-0.674561	0.220621
665	334873													6.921947	-0.640360	6.953887	0.711538	-0.625635	0.319835	-0.078190	0.381858	0.920908	-0.698284	-0.680268	0.222788
666	335040													7.062536	-0.595092	7.052700	0.717675	-0.619505	0.318051	-0.078806	0.381537	0.920988	-0.691905	-0.686035	0.224999
667	335207													7.076263	-0.640453	7.159003	0.724103	-0.612795	0.316477	-0.079566	0.381582	0.920904	-0.685087	-0.692010	0.227547
668	335373													6.855079	-0.717252	7.224248	0.730586	-0.605795	0.315050	-0.080438	0.381825	0.920727	-0.678066	-0.698013	0.230227
669	335540													6.775544	-0.808849	7.303200	0.736868	-0.598847	0.313700	-0.081372	0.382087	0.920537	-0.671121	-0.703841	0.232819
670	335707													6.864367	-0.816220	7.381065	0.743010	-0.592061	0.312088	-0.082217	0.382028	0.920486	-0.664211	-0.709590	0.235173
671	335873													6.812015	-0.783734	7.520241	0.749258	-0.585148	0.310185	-0.082985	0.381719	0.920546	-0.657059	-0.715466	0.237447
672	336040													6.645423	-0.761428	7.665753	0.755469	-0.578235	0.308076	-0.083630	0.381261	0.920677	-0.649825	-0.721307	0.239674
673	336207													6.384907	-0.694640	7.862381	0.761278	-0.571696	0.305973	-0.084142	0.380785	0.920827	-0.642943	-0.726751	0.241780
674	336373													6.226339	-0.730244	7.913424	0.766376	-0.565838	0.304130	-0.084582	0.380430	0.920934	-0.636800	-0.731505	0.243692
675	336540													6.219560	-0.771190	7.918243	0.770639	-0.560940	0.302427	-0.084920	0.379940	0.921105	-0.631588	-0.735521	0.245162
676	336707													6.359449	-0.677753	7.913548	0.774536	-0.556382	0.300889	-0.085410	0.379340	0.921307	-0.626737	-0.739284	0.246291
677	336873													6.259879	-0.766981	7.946414	0.778340	-0.551789	0.299525	-0.086222	0.378608	0.921532	-0.621894	-0.743091	0.247109
678	337040													6.174868	-0.800595	7.947072	0.782024	-0.547368	0.298037	-0.087115	0.377505	0.921901	-0.617130	-0.746912	0.247534
679	337207													6.042313	-0.744743	8.000884	0.785466	-0.543222	0.296568	-0.087919	0.376387	0.922281	-0.612628	-0.750495	0.247880
680	337373													6.135698	-0.678613	7.972774	0.788738	-0.539135	0.295342	-0.088755	0.375533	0.922549	-0.608289	-0.753863	0.248346
681	337540													6.020733	-0.813642	7.995626	0.791985	-0.534870	0.294406	-0.089801	0.374910	0.922702	-0.603901	-0.757203	0.248891
682	337707													5.918603	-1.051147	7.986341	0.795070	-0.530953	0.293175	-0.090676	0.373886	0.923032	-0.599701	-0.760459	0.249121
683	337873													5.928884	-1.015092	7.993989	0.797918	-0.527682	0.291341	-0.090900	0.372471	0.923581	-0.595873	-0.763425	0.249235
684	338040													5.978877	-0.858671	8.039431	0.800565	-0.524769	0.289332	-0.090687	0.371170	0.924126	-0.592344	-0.766062	0.249556
685	338207													5.996310	-0.665102	8.119539	0.803000	-0.521996	0.287594	-0.090476	0.370193	0.924538	-0.589071	-0.768425	0.250037
686	338373													6.008682	-0.618254	8.126346	0.805202	-0.519242	0.286422	-0.090682	0.369507	0.924793	-0.586026	-0.770618	0.250441
687	338540													5.992648	-0.658387	8.124993	0.807185	-0.516455	0.285879	-0.091395	0.369114	0.924879	-0.583180	-0.772676	0.250743
688	338707													5.998333	-0.731769	8.142810	0.808965	-0.513731	0.285756	-0.092493	0.368812	0.924891	-0.580535	-0.774635	0.250839
689	338873													6.071379	-0.734436	8.170404	0.810611	-0.511120	0.285772	-0.093707	0.368501	0.924892	-0.578038	-0.776507	0.250816
690	339040													6.079808	-0.786580	8.170528	0.812405	-0.508071	0.286115	-0.095148	0.368597	0.924707	-0.575278	-0.778460	0.251108
691	339207													5.887849	-1.025950	8.164902	0.814269	-0.504934	0.286371	-0.096647	0.368517	0.924583	-0.572386	-0.780537	0.251271
692	339373													5.816863	-0.995877	8.152982	0.816102	-0.502107	0.286122	-0.097867	0.367872	0.924712	-0.569561	-0.782661	0.251081
693	339540													5.829508	-0.845469	8.206783	0.817915	-0.499342	0.285784	-0.098986	0.367184	0.924866	-0.566760	-0.784750	0.250897
694	339707													5.821860	-0.936925	8.289869	0.819731	-0.496327	0.285833	-0.100408	0.366795	0.924867	-0.563879	-0.786842	0.250838
695	339874													5.731983	-1.153430	8.334270	0.821467	-0.493340	0.286020	-0.101930	0.366460	0.924834	-0.561072	-0.788874	0.250749
696	340040													5.556966	-1.388825	8.368653	0.822993	-0.490854	0.285910	-0.103068	0.365930	0.924917	-0.558622	-0.790669	0.250567
697	340207													5.683978	-1.357069	8.383441	0.824268	-0.489173	0.285119	-0.103288	0.365206	0.925179	-0.556699	-0.792045	0.250502
698	340374													5.659326	-1.203000	8.414956	0.825478	-0.487801	0.283965	-0.102914	0.364588	0.925464	-0.554973	-0.793174	0.250758
699	340540													5.629940	-1.088988	8.372863	0.826512	-0.486653	0.282924	-0.102459	0.364152	0.925686	-0.553516	-0.794079	0.251114
700	340707													5.583626	-1.045370	8.349480	0.827425	-0.485592	0.282079	-0.102155	0.363767	0.925871	-0.552206	-0.794905	0.251384
701	340874													5.578595	-1.092295	8.284163	0.828200	-0.484717	0.281307	-0.101936	0.363285	0.926085	-0.551084	-0.795659	0.251462
702	341040													5.663399	-1.066211	8.287745	0.828889	-0.484049	0.280428	-0.101617	0.362666	0.926362	-0.550107	-0.796347	0.251423
703	341207													5.787399	-1.012137	8.313464	0.829746	-0.483121	0.279492	-0.101278	0.362116	0.926614	-0.548875	-0.797161	0.251535
704	341374													5.659575	-0.986247	8.384448	0.830771	-0.481862	0.278617	-0.100964	0.361798	0.926773	-0.547380	-0.798067	0.251920
705	341540													5.611197	-0.997626	8.444535	0.831840	-0.480479	0.277816	-0.100684	0.361613	0.926876	-0.545806	-0.798984	0.252428
706	341707													5.469882	-1.011182	8.477938	0.832707	-0.479427	0.277036	-0.100431	0.361253	0.927044	-0.544529	-0.799779	0.252668
707	341874													5.591693	-0.903945	8.504923	0.833350	-0.478738	0.276291	-0.100242	0.360669	0.927291	-0.543580	-0.800455	0.252574
708	342040													5.520368	-0.855312	8.470589	0.833935	-0.477862	0.276045	-0.100539	0.360279	0.927411	-0.542628	-0.801154	0.252405
709	342207													5.334259	-1.099043	8.426662	0.834243	-0.477312	0.276066	-0.101150	0.359697	0.927570	-0.542040	-0.801743	0.251794
710	342374													5.452619	-1.193217	8.484553	0.834262	-0.477502	0.275678	-0.101245	0.358819	0.927900	-0.541993	-0.802023	0.251004
711	342540													5.558315	-1.083901	8.471937	0.834263	-0.477923	0.274944	-0.100845	0.357987	0.928265	-0.542066	-0.802144	0.250459
712	342707													5.538273	-1.157440	8.458327	0.834190	-0.478489	0.274180	-0.100254	0.357311	0.928589	-0.542287	-0.802108	0.250095
713	342874													5.542352	-1.149710	8.518591	0.834026	-0.479352	0.273172	-0.099312	0.356603	0.928963	-0.542714	-0.801908	0.249811
714	343040													5.588199	-1.045206	8.648658	0.833782	-0.480436	0.272008	-0.098038	0.356013	0.929324	-0.543319	-0.801521	0.249736
715	343207													5.426089	-1.103630	8.726968	0.833313	-0.481810	0.271014	-0.096607	0.355784	0.929562	-0.544294	-0.800798	0.249933
716	343374													5.251269	-1.115277	8.813375	0.832309	-0.483901	0.270375	-0.094976	0.356060	0.929624	-0.546115	-0.799413	0.250393
717	343540													5.114068	-1.002387	9.069781	0.830276	-0.487380	0.270373	-0.093278	0.356752	0.929531	-0.549491	-0.796987	0.250741
718	343707													5.103481	-0.933030	9.273271	0.826929	-0.492558	0.271249	-0.091754	0.357724	0.929309	-0.554771	-0.793360	0.250619
719	343874													5.158984	-0.918760	9.235256	0.822088	-0.499666	0.272958	-0.090175	0.359095	0.928934	-0.562175	-0.788279	0.250150
720	344040													5.490721	-0.923154	8.988961	0.816200	-0.508108	0.275032	-0.088378	0.360626	0.928514	-0.570970	-0.782160	0.249437
721	344207													5.168384	-0.804591	8.957526	0.809590	-0.517391	0.277255	-0.086444	0.362092	0.928125	-0.580596	-0.775368	0.248421
722	344374													4.642531	-0.711790	9.171301	0.800805	-0.529180	0.280498	-0.084528	0.363791	0.927638	-0.592930	-0.766567	0.246595
723	344540													4.854012	-0.731850	9.052851	0.788835	-0.544385	0.285280	-0.082649	0.365993	0.926940	-0.609023	-0.754781	0.243715
724	344707													5.712713	-0.851016	8.729272	0.774207	-0.561931	0.291269	-0.080730	0.368759	0.926013	-0.627763	-0.740440	0.240131
725	344874													6.420975	-0.906721	8.151405	0.758915	-0.579519	0.296994	-0.078823	0.370973	0.925292	-0.646401	-0.725628	0.235858
726	345040													6.384372	-0.692300	7.802141	0.743817	-0.596245	0.302041	-0.076855	0.372603	0.924803	-0.663950	-0.711097	0.231324
727	345207													6.091192	-0.523628	7.633360	0.728336	-0.612486	0.307224	-0.074866	0.374543	0.924182	-0.681118	-0.696116	0.226939
728	345374													6.357289	-0.397910	7.415999	0.711618	-0.628965	0.313054	-0.073242	0.376744	0.923417	-0.698738	-0.680049	0.222031
729	345540													6.972835	-0.436313	7.061517	0.694295	-0.644973	0.319318	-0.072341	0.378899	0.922606	-0.716045	-0.663661	0.216410
730	345707													7.222363	-0.458363	6.828035	0.677369	-0.659712	0.325503	-0.072039	0.380861	0.921822	-0.732108	-0.647862	0.210458
731	345874													7.304813	-0.475396	6.694942	0.660766	-0.673263	0.331823	-0.072087	0.383116	0.920883	-0.747123	-0.632408	0.204616
732	346040													7.184026	-0.543740	6.614582	0.643873	-0.686273	0.338316	-0.072262	0.385648	0.919812	-0.761712	-0.616689	0.198717
733	346207													7.393885	-0.555537	6.436507	0.625940	-0.699401	0.345018	-0.072371	0.388402	0.918644	-0.776506	-0.599985	0.192500
734	346374													7.914040	-0.617905	6.108587	0.607673	-0.712069	0.351697	-0.072602	0.391177	0.917447	-0.790862	-0.583042	0.186010
735	346540													8.097272	-0.677333	5.905272	0.590048	-0.723609	0.358098	-0.072892	0.393981	0.916224	-0.804071	-0.566718	0.179723
736	346707													7.771945	-0.789556	5.841989	0.572364	-0.734636	0.364293	-0.072824	0.396965	0.914940	-0.816759	-0.550208	0.173710
737	346874													7.781928	-0.860810	5.656329	0.553377	-0.746092	0.370297	-0.072121	0.399982	0.913681	-0.829802	-0.532316	0.167532
738	347040													8.131058	-0.839288	5.354793	0.533474	-0.757682	0.375931	-0.070784	0.402907	0.912499	-0.842849	-0.513404	0.161309
739	347207													8.377087	-0.760990	5.071384	0.513394	-0.768875	0.381128	-0.068882	0.405771	0.911375	-0.855384	-0.494147	0.155359
740	347374													8.408516	-0.721968	4.877381	0.493302	-0.779495	0.386057	-0.066554	0.408692	0.910242	-0.867308	-0.474718	0.149730
741	347540													8.552375	-0.691183	4.603492	0.472986	-0.789747	0.390619	-0.064056	0.411350	0.909224	-0.878739	-0.455071	0.143975
742	347707													8.697457	-0.608879	4.235777	0.452781	-0.799500	0.394700	-0.061632	0.413554	0.908391	-0.889489	-0.435629	0.137974
743	347874													8.967347	-0.505545	3.959308	0.433339	-0.808443	0.398294	-0.059350	0.415386	0.907707	-0.899275	-0.416984	0.132021
744	348040													8.691046	-0.555680	3.978606	0.414962	-0.816346	0.401728	-0.057099	0.417301	0.906973	-0.908045	-0.399298	0.126551
745	348207													8.435922	-0.574644	3.990039	0.395383	-0.824345	0.405127	-0.054458	0.419252	0.906235	-0.916901	-0.380372	0.120872
746	348374													8.775588	-0.472518	3.722105	0.374379	-0.832480	0.408432	-0.051655	0.421058	0.905562	-0.925836	-0.360121	0.114634
747	348540													9.230899	-0.330042	3.324934	0.353307	-0.840090	0.411611	-0.049021	0.422757	0.904916	-0.934222	-0.339891	0.108181
748	348707													9.633349	-0.273015	3.065753	0.333448	-0.846663	0.414698	-0.046704	0.424498	0.904223	-0.941611	-0.320880	0.102006
749	348874													9.407147	-0.285338	2.924713	0.314965	-0.852209	0.417775	-0.044569	0.426413	0.903430	-0.948056	-0.303169	0.096323
750	349040													9.131611	-0.327228	2.785057	0.296463	-0.857323	0.420840	-0.042266	0.428440	0.902581	-0.954109	-0.285369	0.090782
751	349207													9.372735	-0.323140	2.473400	0.277666	-0.862175	0.423739	-0.040185	0.430274	0.901803	-0.959837	-0.267428	0.084826
752	349374													9.743145	-0.269681	2.200693	0.259646	-0.866540	0.426254	-0.038404	0.431777	0.901162	-0.964940	-0.250353	0.078830
753	349540													9.853251	-0.229685	2.112192	0.243214	-0.870158	0.428570	-0.036776	0.433247	0.900524	-0.969275	-0.234781	0.073370
754	349707													9.553040	-0.283229	2.085335	0.227737	-0.873194	0.430892	-0.035111	0.434868	0.899809	-0.973089	-0.220049	0.068377
755	349874													9.316384	-0.325883	1.931884	0.211891	-0.876081	0.433110	-0.033396	0.436424	0.899121	-0.976722	-0.204980	0.063217
756	350040													9.503431	-0.298019	1.689894	0.195662	-0.878901	0.435028	-0.031808	0.437681	0.898568	-0.980155	-0.189653	0.057681
757	350207													9.893136	-0.204851	1.462982	0.179844	-0.881500	0.436594	-0.030273	0.438661	0.898143	-0.983229	-0.174743	0.052205
758	350374													9.972794	-0.227343	1.438068	0.165363	-0.883605	0.438061	-0.028743	0.439669	0.897700	-0.985814	-0.161037	0.047308
759	350540													9.457960	-0.352129	1.432934	0.151409	-0.885483	0.439312	-0.027134	0.440545	0.897320	-0.988099	-0.147783	0.042676
760	350707													9.292763	-0.318948	1.333872	0.136285	-0.887492	0.440209	-0.025234	0.441101	0.897102	-0.990348	-0.133370	0.037721
761	350874													9.707367	-0.254291	1.096528	0.120716	-0.889421	0.440861	-0.023252	0.441453	0.896983	-0.992415	-0.118531	0.032609
762	351040													9.958034	-0.203693	0.963896	0.105974	-0.891082	0.441296	-0.021312	0.441658	0.896930	-0.994141	-0.104456	0.027813
763	351207													9.651979	-0.186258	0.898136	0.092203	-0.892441	0.441643	-0.019360	0.441842	0.896884	-0.995552	-0.091246	0.023461
764	351374													9.246364	-0.185272	0.829202	0.077806	-0.893667	0.441934	-0.017091	0.442017	0.896844	-0.996822	-0.077333	0.019118
765	351540													9.499935	-0.160903	0.650087	0.062076	-0.894855	0.442020	-0.014788	0.442001	0.896893	-0.997962	-0.062212	0.014204
766	351707													9.985698	-0.082529	0.364042	0.046354	-0.895870	0.441892	-0.012700	0.441803	0.897022	-0.998844	-0.047193	0.009102
767	351874													10.235889	-0.031247	0.208823	0.031970	-0.896590	0.441706	-0.010879	0.441594	0.897149	-0.999430	-0.033487	0.004364
768	352040													9.994650	-0.068760	0.206697	0.019116	-0.897026	0.441565	-0.009392	0.441465	0.897229	-0.999773	-0.021299	0.000015
769	352207													9.605433	-0.073511	0.159614	0.006358	-0.897284	0.441408	-0.007897	0.441358	0.897296	-0.999949	-0.009190	-0.004280
770	352374													9.474107	-0.062753	0.004470	-0.007104	-0.897360	0.441242	-0.006217	0.441284	0.897346	-0.999955	0.003632	-0.008714
771	352540													9.691418	-0.034249	-0.199603	-0.020915	-0.897236	0.441056	-0.004503	0.441233	0.897381	-0.999771	0.016782	-0.013268
772	352707													9.893788	-0.043527	-0.341635	-0.034274	-0.896954	0.440793	-0.002961	0.441141	0.897433	-0.999408	0.029454	-0.017775
773	352874													9.836246	-0.042154	-0.359100	-0.046834	-0.896582	0.440395	-0.001626	0.440946	0.897532	-0.998901	0.041319	-0.022109
774	353040													9.616936	-0.052080	-0.474335	-0.059468	-0.896141	0.439768	-0.000488	0.440574	0.897716	-0.998230	0.053170	-0.026638
775	353207													9.619156	0.013871	-0.648486	-0.072528	-0.895582	0.438945	0.000649	0.440062	0.897967	-0.997366	0.065413	-0.031335
776	353374													9.760018	0.032210	-0.829236	-0.085601	-0.894931	0.437916	0.001834	0.439387	0.898296	-0.996328	0.077698	-0.035971
777	353540													9.683893	0.026739	-0.898757	-0.098143	-0.894157	0.436864	0.003018	0.438714	0.898622	-0.995168	0.089512	-0.040358
778	353707													9.336580	0.018161	-0.873549	-0.110763	-0.893261	0.435679	0.004218	0.437950	0.898989	-0.993838	0.101412	-0.044741
779	353874													9.294773	0.034867	-0.992171	-0.124738	-0.892072	0.434336	0.005469	0.437130	0.899382	-0.992175	0.114562	-0.049648
780	354040													9.633332	0.085622	-1.213808	-0.139268	-0.890675	0.432785	0.006662	0.436192	0.899829	-0.990232	0.128200	-0.054814
781	354207													9.861355	0.134827	-1.467375	-0.153207	-0.889169	0.431169	0.007674	0.435237	0.900283	-0.988164	0.141238	-0.059858
782	354374													9.907482	0.191294	-1.711147	-0.166117	-0.887618	0.429581	0.008604	0.434312	0.900721	-0.986069	0.153321	-0.064510
783	354540													9.902648	0.223997	-1.882700	-0.177819	-0.886053	0.428125	0.009503	0.433492	0.901107	-0.984017	0.164303	-0.068663
784	354707													9.690000	0.224033	-1.950902	-0.188233	-0.884488	0.426906	0.010506	0.432838	0.901411	-0.982068	0.174160	-0.072182
785	354874													9.309464	0.192252	-2.029097	-0.198721	-0.882697	0.425860	0.011899	0.432321	0.901641	-0.979984	0.184242	-0.075408
786	355040													9.477918	0.238805	-2.114525	-0.209888	-0.880548	0.424950	0.013865	0.431907	0.901812	-0.977627	0.195171	-0.078443
787	355207													9.715897	0.258093	-2.344874	-0.220587	-0.878290	0.424203	0.015862	0.431629	0.901912	-0.975238	0.205679	-0.081280
788	355374													9.441277	0.205146	-2.473813	-0.230593	-0.876083	0.423444	0.017689	0.431326	0.902023	-0.972889	0.215491	-0.083964
789	355540													9.328273	0.206193	-2.547128	-0.240514	-0.873921	0.422393	0.019470	0.430736	0.902268	-0.970450	0.225232	-0.086583
790	355707													9.285317	0.246089	-2.599160	-0.250361	-0.871769	0.421116	0.021170	0.429935	0.902611	-0.967921	0.234894	-0.089183
791	355874													9.342680	0.290551	-2.623077	-0.260344	-0.869497	0.419756	0.022788	0.429093	0.902973	-0.965247	0.244649	-0.091898
792	356040													9.436385	0.337654	-2.680366	-0.270176	-0.867152	0.418393	0.024052	0.428339	0.903298	-0.962510	0.254113	-0.094870
793	356207													9.447102	0.364176	-2.728043	-0.279636	-0.864739	0.417170	0.024808	0.427851	0.903509	-0.959786	0.263003	-0.098190
794	356374													9.501605	0.411231	-2.785342	-0.288530	-0.862297	0.416166	0.025015	0.427714	0.903568	-0.957144	0.271117	-0.101838
795	356541													9.556951	0.398590	-2.841881	-0.296618	-0.859867	0.415509	0.024827	0.427999	0.903438	-0.954673	0.278292	-0.105604
796	356707													9.516144	0.293439	-2.919683	-0.303825	-0.857552	0.415085	0.024423	0.428527	0.903199	-0.952415	0.284552	-0.109253
797	356874													9.516006	0.262935	-2.947325	-0.310264	-0.855375	0.414813	0.023901	0.429190	0.902898	-0.950350	0.290051	-0.112718
798	357041													9.484643	0.257983	-2.948415	-0.315929	-0.853246	0.414922	0.023537	0.430137	0.902457	-0.948491	0.294878	-0.115810
799	357207													9.476621	0.179223	-3.035936	-0.320914	-0.851237	0.415223	0.023206	0.431213	0.901952	-0.946824	0.299085	-0.118629
800	357374													9.392890	0.129438	-3.134542	-0.325211	-0.849398	0.415646	0.022987	0.432307	0.901433	-0.945362	0.302710	-0.121066
801	357541													9.270103	0.073504	-3.190897	-0.328961	-0.847724	0.416112	0.023036	0.433302	0.900955	-0.944063	0.305964	-0.123011
802	357707													9.263669	0.092612	-3.234927	-0.332499	-0.846115	0.416574	0.023440	0.434155	0.900533	-0.942812	0.309191	-0.124524
803	357874													9.302835	0.159131	-3.296212	-0.335843	-0.844540	0.417087	0.024261	0.434904	0.900150	-0.941605	0.312428	-0.125570
804	358041													9.264003	0.179899	-3.319980	-0.338974	-0.842962	0.417746	0.025461	0.435653	0.899755	-0.940451	0.315630	-0.126213
805	358207													9.161984	0.154292	-3.413486	-0.341958	-0.841416	0.418430	0.026827	0.436350	0.899377	-0.939332	0.318775	-0.126641
806	358374													9.060764	0.164999	-3.440954	-0.344890	-0.839913	0.419042	0.028335	0.436915	0.899056	-0.938215	0.321949	-0.126889
807	358541													9.127596	0.180186	-3.499731	-0.347790	-0.838445	0.419585	0.030004	0.437340	0.898795	-0.937092	0.325182	-0.126946
808	358707													9.274815	0.217366	-3.546403	-0.350306	-0.837228	0.419922	0.031483	0.437552	0.898642	-0.936106	0.328020	-0.126918
809	358874													9.285522	0.284750	-3.672884	-0.352229	-0.836363	0.420038	0.032521	0.437592	0.898586	-0.935349	0.330168	-0.126933
810	359041													9.228216	0.348011	-3.711941	-0.353558	-0.835791	0.420059	0.033291	0.437535	0.898585	-0.934820	0.331686	-0.126870
811	359207													9.149811	0.397292	-3.686798	-0.354382	-0.835414	0.420115	0.033966	0.437476	0.898588	-0.934484	0.332713	-0.126658
812	359374													9.114963	0.365229	-3.688191	-0.354838	-0.835173	0.420209	0.034432	0.437478	0.898570	-0.934294	0.333315	-0.126477
813	359541													9.165977	0.363829	-3.673190	-0.354874	-0.835132	0.420260	0.034539	0.437500	0.898555	-0.934276	0.333390	-0.126413
814	359707													9.139676	0.389437	-3.668177	-0.354545	-0.835220	0.420363	0.034501	0.437576	0.898519	-0.934402	0.333068	-0.126325
815	359874													9.135102	0.385808	-3.627269	-0.353792	-0.835413	0.420615	0.034426	0.437764	0.898431	-0.934690	0.332338	-0.126117
816	360041													9.085938	0.368915	-3.592703	-0.352637	-0.835709	0.420996	0.034375	0.438025	0.898305	-0.935129	0.331248	-0.125736
817	360207													9.066310	0.325740	-3.568658	-0.351221	-0.836080	0.421442	0.034352	0.438308	0.898168	-0.935662	0.329933	-0.125222
818	360374													9.055841	0.293304	-3.490088	-0.349598	-0.836533	0.421894	0.034320	0.438572	0.898041	-0.936271	0.328432	-0.124614
819	360541													9.071063	0.281285	-3.478921	-0.347870	-0.837078	0.422240	0.034111	0.438770	0.897952	-0.936922	0.326774	-0.124081
820	360707													9.118224	0.341812	-3.427293	-0.346048	-0.837644	0.422614	0.033879	0.438994	0.897851	-0.937605	0.325018	-0.123534
821	360874													9.121235	0.322177	-3.411795	-0.344063	-0.838200	0.423133	0.033797	0.439298	0.897705	-0.938338	0.323168	-0.122818
822	361041													9.107619	0.276406	-3.350272	-0.341949	-0.838754	0.423748	0.033842	0.439646	0.897533	-0.939109	0.321251	-0.121951
823	361207													9.133819	0.234932	-3.328774	-0.339718	-0.839365	0.424333	0.033833	0.439967	0.897376	-0.939919	0.319211	-0.121067
824	361374													9.197710	0.241459	-3.323956	-0.337350	-0.840068	0.424830	0.033666	0.440230	0.897254	-0.940777	0.316991	-0.120230
825	361541													9.313992	0.277264	-3.321539	-0.334621	-0.840949	0.425246	0.033369	0.440402	0.897180	-0.941762	0.314405	-0.119306
826	361707													9.365286	0.323463	-3.316590	-0.331268	-0.842040	0.425711	0.033031	0.440561	0.897115	-0.942958	0.311247	-0.118130
827	361874													9.397676	0.305543	-3.294710	-0.327231	-0.843314	0.426312	0.032708	0.440771	0.897023	-0.944378	0.307478	-0.116651
828	362041													9.360843	0.342142	-3.265600	-0.322563	-0.844790	0.426946	0.032364	0.440948	0.896949	-0.945994	0.303141	-0.114893
829	362207													9.328317	0.329301	-3.247408	-0.317373	-0.846397	0.427653	0.031977	0.441159	0.896859	-0.947762	0.298314	-0.112947
830	362374													9.375910	0.331222	-3.190141	-0.311828	-0.848098	0.428361	0.031422	0.441389	0.896765	-0.949619	0.293097	-0.110989
831	362541													9.457594	0.363933	-3.159759	-0.305775	-0.849907	0.429139	0.030728	0.441683	0.896645	-0.951608	0.287358	-0.108940
832	362707													9.470460	0.362683	-3.137388	-0.299020	-0.851861	0.430024	0.029941	0.442044	0.896493	-0.953777	0.280945	-0.106674
833	362874													9.466449	0.350141	-3.082136	-0.291572	-0.853926	0.431041	0.029091	0.442496	0.896298	-0.956106	0.273875	-0.104178
834	363041													9.524387	0.322887	-3.006495	-0.283420	-0.856102	0.432160	0.028196	0.443005	0.896076	-0.958581	0.266151	-0.101418
835	363207													9.499891	0.273743	-2.908376	-0.274503	-0.858414	0.433328	0.027213	0.443523	0.895850	-0.961201	0.257705	-0.098388
836	363374													9.405085	0.277795	-2.795860	-0.264953	-0.860853	0.434432	0.026038	0.443982	0.895657	-0.963910	0.248619	-0.095220
837	363541													9.402797	0.287866	-2.713693	-0.255122	-0.863345	0.435371	0.024771	0.444287	0.895542	-0.966592	0.239257	-0.091961
838	363707													9.489204	0.244348	-2.656363	-0.244938	-0.865853	0.436239	0.023364	0.444543	0.895453	-0.969257	0.229523	-0.088655
839	363874													9.578162	0.240919	-2.572544	-0.234231	-0.868447	0.436961	0.021800	0.444660	0.895434	-0.971936	0.219265	-0.085221
840	364041													9.593356	0.254701	-2.477248	-0.222821	-0.871087	0.437673	0.020177	0.444743	0.895431	-0.974651	0.208352	-0.081522
841	364207													9.514452	0.172791	-2.360509	-0.210662	-0.873739	0.438409	0.018666	0.444796	0.895438	-0.977381	0.196818	-0.077392
842	364374													9.289062	0.092622	-2.139249	-0.198123	-0.876360	0.439023	0.017269	0.444711	0.895508	-0.980025	0.185002	-0.072973
843	364541													9.340861	0.075758	-1.869358	-0.185863	-0.878942	0.439222	0.015752	0.444288	0.895746	-0.982449	0.173404	-0.068732
844	364707													9.319876	0.092064	-1.648631	-0.173988	-0.881470	0.439020	0.013996	0.443561	0.896135	-0.984648	0.162061	-0.064838
845	364874													9.292448	0.122859	-1.503824	-0.162728	-0.883831	0.438591	0.012257	0.442671	0.896600	-0.986595	0.151278	-0.061201
846	365041													9.243334	0.116361	-1.357064	-0.152235	-0.885987	0.438009	0.010681	0.441673	0.897112	-0.988287	0.141250	-0.057775
847	365207													9.308305	0.053107	-1.308245	-0.142669	-0.887926	0.437302	0.009153	0.440619	0.897648	-0.989728	0.132069	-0.054736
848	365374													9.496090	0.082618	-1.228573	-0.133902	-0.889726	0.436415	0.007524	0.439456	0.898233	-0.990966	0.123559	-0.052150
849	365541													9.778586	0.183496	-1.202930	-0.125301	-0.891387	0.435580	0.006047	0.438345	0.898786	-0.992100	0.115253	-0.049535
850	365707													10.001977	0.174272	-1.158689	-0.116096	-0.892953	0.434921	0.004501	0.437404	0.899254	-0.993228	0.106357	-0.046761
851	365874													10.094374	0.124338	-1.104649	-0.105762	-0.894464	0.434452	0.002702	0.436642	0.899631	-0.994388	0.096320	-0.043764
852	366041													10.108802	0.095129	-1.089257	-0.094081	-0.895951	0.434074	0.000640	0.435953	0.899969	-0.995564	0.084948	-0.040441
853	366207													10.038878	0.060458	-1.077529	-0.080965	-0.897346	0.433838	-0.001451	0.435372	0.900249	-0.996716	0.072259	-0.036553
854	366374													10.123397	0.047496	-1.110088	-0.066441	-0.898584	0.433742	-0.003520	0.434911	0.900467	-0.997784	0.058301	-0.032059
855	366541													10.217352	0.024860	-1.061479	-0.050063	-0.899673	0.433684	-0.005739	0.434480	0.900663	-0.998730	0.042601	-0.026914
856	366707													10.312119	-0.117712	-0.812447	-0.031427	-0.900626	0.433456	-0.008164	0.433887	0.900930	-0.999473	0.024775	-0.020989
857	366874													10.092952	-0.242879	-0.497773	-0.010667	-0.901369	0.432921	-0.010695	0.433024	0.901319	-0.999886	0.004985	-0.014259
858	367041													9.401414	-0.351522	-0.204984	0.010782	-0.901869	0.431874	-0.012839	0.431739	0.901907	-0.999859	-0.015269	-0.006924
859	367207													9.134120	-0.320607	0.053143	0.030597	-0.902174	0.430287	-0.014503	0.430042	0.902692	-0.999427	-0.033860	0.000074
860	367374													9.416038	-0.187997	0.207765	0.048857	-0.902304	0.428323	-0.015947	0.428076	0.903602	-0.998678	-0.050978	0.006526
861	367541													9.709528	-0.018474	0.374424	0.066567	-0.902068	0.426430	-0.017306	0.426270	0.904430	-0.997632	-0.067585	0.012765
862	367707													9.850169	0.028898	0.527556	0.084709	-0.901284	0.424866	-0.018747	0.424882	0.905055	-0.996229	-0.084631	0.019095
863	367874													9.826747	-0.095746	0.710050	0.103518	-0.899937	0.423554	-0.020388	0.423832	0.905511	-0.994419	-0.102373	0.025526
864	368041													9.704586	-0.160766	0.832889	0.122975	-0.898147	0.422148	-0.022221	0.422778	0.905961	-0.992161	-0.120791	0.032033
865	368207													9.582469	-0.149759	0.992555	0.142916	-0.895885	0.420673	-0.024214	0.421744	0.906392	-0.989439	-0.139724	0.038581
866	368374													9.525722	-0.189623	1.244013	0.163360	-0.893076	0.419199	-0.026169	0.420835	0.906760	-0.986219	-0.159099	0.045377
867	368541													9.518301	-0.303456	1.476618	0.184124	-0.889727	0.417713	-0.027803	0.420095	0.907054	-0.982510	-0.178624	0.052613
868	368707													9.456381	-0.346183	1.648463	0.204965	-0.885948	0.416035	-0.028974	0.419381	0.907348	-0.978340	-0.198029	0.060289
869	368874													9.461467	-0.268080	1.796033	0.226153	-0.881630	0.414227	-0.029774	0.418790	0.907595	-0.973637	-0.217588	0.068460
870	369041													9.282574	-0.379545	2.146849	0.247816	-0.876701	0.412289	-0.030593	0.418269	0.907808	-0.968324	-0.237582	0.076833
871	369207													9.449957	-0.326998	2.577212	0.269261	-0.871436	0.409996	-0.031691	0.417471	0.908137	-0.962546	-0.257519	0.084792
872	369374													9.339128	-0.226805	2.978086	0.290460	-0.865683	0.407708	-0.032719	0.416843	0.908389	-0.956328	-0.277191	0.092752
873	369541													9.125365	-0.190147	3.260169	0.310924	-0.859458	0.405780	-0.033537	0.416754	0.908400	-0.949843	-0.296052	0.100755
874	369707													9.030948	-0.161936	3.413618	0.330419	-0.852871	0.404270	-0.034305	0.417192	0.908171	-0.943211	-0.313945	0.108590
875	369874													9.035018	-0.251155	3.618964	0.349198	-0.845872	0.403189	-0.035331	0.418084	0.907721	-0.936383	-0.331220	0.116108
876	370041													8.902435	-0.435603	3.835174	0.367327	-0.838659	0.402146	-0.036565	0.419017	0.907242	-0.929373	-0.347959	0.123251
877	370207													8.764975	-0.422309	4.030982	0.384558	-0.831495	0.400914	-0.037963	0.419699	0.906869	-0.922320	-0.363963	0.129833
