// Start Time: Unknown
// Update Rate: 60.0Hz
//Filter Profile: human (46.1)
// Option Flags: AHS Disabled ICC Disabled
// Firmware Version: 4.0.2
0	sampleTimeFine	Year	Month	Day	Second	UTC_Nano	UTC_Year	UTC_Month	UTC_Day	UTC_Hour	UTC_Minute	UTC_Second	UTC_Valid	Acc_X	Acc_Y	Acc_Z	Mat[1][1]	Mat[2][1]	Mat[3][1]	Mat[1][2]	Mat[2][2]	Mat[3][2]	Mat[1][3]	Mat[2][3]	Mat[3][3]
0	3838716													-0.033967	-0.377980	0.375113	-0.397287	-0.898998	0.184298	-0.006753	0.203686	0.979013	-0.917669	0.387705	-0.086993
1	3838883													8.941549	-0.057703	-3.875160	-0.397051	-0.898979	0.184899	-0.006686	0.204288	0.978888	-0.917772	0.387432	-0.087123
2	3839049													8.960677	-0.043483	-3.859296	-0.397135	-0.898846	0.185365	-0.006484	0.204718	0.978800	-0.917737	0.387514	-0.087129
3	3839216													8.944659	-0.041427	-3.857869	-0.396921	-0.898839	0.185854	-0.006120	0.205074	0.978727	-0.917832	0.387340	-0.086899
4	3839383													8.960573	-0.028735	-3.848006	-0.396582	-0.898942	0.186079	-0.005814	0.205156	0.978712	-0.917981	0.387058	-0.086587
5	3839549													8.988909	-0.023406	-3.847445	-0.396042	-0.899164	0.186157	-0.005540	0.205070	0.978732	-0.918216	0.386588	-0.086198
6	3839716													8.971737	-0.019843	-3.814856	-0.395329	-0.899451	0.186286	-0.005286	0.205032	0.978741	-0.918524	0.385940	-0.085810
7	3839883													8.957311	-0.023922	-3.822534	-0.394501	-0.899803	0.186339	-0.005070	0.204915	0.978767	-0.918881	0.385180	-0.085401
8	3840049													8.978465	-0.029398	-3.783520	-0.393638	-0.900166	0.186414	-0.004885	0.204831	0.978785	-0.919253	0.384376	-0.085027
9	3840216													8.945999	-0.005301	-3.791809	-0.392678	-0.900587	0.186406	-0.004814	0.204696	0.978814	-0.919663	0.383461	-0.084715
10	3840383													8.983957	0.019877	-3.760803	-0.391817	-0.900908	0.186663	-0.004787	0.204879	0.978776	-0.920031	0.382608	-0.084588
11	3840549													8.897682	0.015257	-3.747131	-0.390960	-0.901272	0.186704	-0.004844	0.204861	0.978779	-0.920395	0.381759	-0.084458
12	3840716													8.916725	-0.047891	-3.755932	-0.390382	-0.901523	0.186704	-0.005022	0.204877	0.978775	-0.920639	0.381159	-0.084508
13	3840883													8.830028	-0.056527	-3.735363	-0.389916	-0.901767	0.186501	-0.005469	0.204795	0.978790	-0.920834	0.380625	-0.084785
14	3841049													8.817037	-0.036672	-3.722986	-0.389905	-0.901807	0.186330	-0.005820	0.204753	0.978796	-0.920837	0.380553	-0.085083
15	3841216													8.906199	-0.078253	-3.754423	-0.389993	-0.901793	0.186213	-0.005977	0.204701	0.978806	-0.920798	0.380615	-0.085222
16	3841383													8.953950	-0.126474	-3.781575	-0.390185	-0.901756	0.185989	-0.006130	0.204540	0.978839	-0.920716	0.380788	-0.085336
17	3841549													8.950571	-0.086083	-3.775749	-0.390364	-0.901733	0.185723	-0.006299	0.204339	0.978880	-0.920639	0.380950	-0.085446
18	3841716													9.074430	-0.000829	-3.755467	-0.390436	-0.901757	0.185456	-0.006347	0.204076	0.978934	-0.920608	0.381034	-0.085403
19	3841883													9.097488	0.050425	-3.750093	-0.390120	-0.901895	0.185450	-0.006253	0.203999	0.978951	-0.920743	0.380749	-0.085223
20	3842049													9.032578	0.034438	-3.733099	-0.389591	-0.902085	0.185636	-0.006065	0.204071	0.978937	-0.920968	0.380260	-0.084976
21	3842216													8.983673	0.029361	-3.719914	-0.388958	-0.902296	0.185940	-0.005945	0.204287	0.978893	-0.921236	0.379643	-0.084823
22	3842383													8.938951	-0.020186	-3.708406	-0.388374	-0.902452	0.186403	-0.005928	0.204724	0.978802	-0.921483	0.379036	-0.084859
23	3842549													8.910022	-0.027275	-3.717069	-0.387865	-0.902594	0.186773	-0.006031	0.205117	0.978719	-0.921697	0.378484	-0.085002
24	3842716													8.947802	-0.042733	-3.714068	-0.387486	-0.902685	0.187122	-0.006143	0.205504	0.978637	-0.921855	0.378059	-0.085175
25	3842883													8.922133	-0.102076	-3.721811	-0.387139	-0.902782	0.187373	-0.006223	0.205773	0.978580	-0.922000	0.377681	-0.085281
26	3843049													8.972848	-0.134519	-3.747197	-0.386970	-0.902858	0.187353	-0.006355	0.205789	0.978576	-0.922070	0.377489	-0.085371
27	3843216													8.885957	-0.105697	-3.745632	-0.386816	-0.902987	0.187052	-0.006592	0.205544	0.978626	-0.922133	0.377315	-0.085460
28	3843383													8.881266	-0.039836	-3.729929	-0.386948	-0.903018	0.186627	-0.006728	0.205152	0.978707	-0.922077	0.377453	-0.085459
29	3843549													8.938248	-0.027057	-3.754745	-0.387208	-0.902986	0.186244	-0.006810	0.204798	0.978781	-0.921967	0.377723	-0.085448
30	3843716													8.933959	-0.017660	-3.746726	-0.387548	-0.902932	0.185798	-0.006894	0.204382	0.978867	-0.921824	0.378077	-0.085432
31	3843883													8.952480	0.001426	-3.757556	-0.387919	-0.902829	0.185525	-0.007018	0.204174	0.978909	-0.921667	0.378436	-0.085539
32	3844049													8.981337	0.033360	-3.777240	-0.388229	-0.902735	0.185331	-0.007148	0.204049	0.978935	-0.921535	0.378726	-0.085671
33	3844216													8.974637	0.025548	-3.795931	-0.388474	-0.902629	0.185336	-0.007256	0.204123	0.978918	-0.921431	0.378939	-0.085846
34	3844383													8.925823	-0.007862	-3.819473	-0.388693	-0.902509	0.185461	-0.007286	0.204293	0.978883	-0.921338	0.379134	-0.085983
35	3844549													8.909528	-0.028305	-3.815673	-0.388942	-0.902362	0.185653	-0.007249	0.204512	0.978837	-0.921234	0.379365	-0.086085
36	3844716													8.953136	-0.056656	-3.818152	-0.389162	-0.902209	0.185937	-0.007148	0.204800	0.978778	-0.921142	0.379574	-0.086150
37	3844883													8.996447	-0.056817	-3.827093	-0.389279	-0.902099	0.186224	-0.007008	0.205067	0.978723	-0.921093	0.379692	-0.086151
38	3845050													8.989957	-0.036979	-3.829008	-0.389242	-0.902054	0.186517	-0.006841	0.205311	0.978673	-0.921110	0.379665	-0.086087
39	3845216													8.914900	-0.005029	-3.806587	-0.389146	-0.902015	0.186907	-0.006642	0.205643	0.978605	-0.921152	0.379579	-0.086016
40	3845383													8.925370	-0.020182	-3.822078	-0.389049	-0.901997	0.187195	-0.006492	0.205884	0.978555	-0.921194	0.379490	-0.085955
41	3845550													8.932513	-0.040913	-3.835708	-0.388929	-0.901977	0.187542	-0.006448	0.206230	0.978482	-0.921245	0.379351	-0.086025
42	3845716													8.936656	-0.020566	-3.823909	-0.388818	-0.901953	0.187887	-0.006415	0.206579	0.978409	-0.921292	0.379218	-0.086108
43	3845883													8.982503	-0.048489	-3.821240	-0.388637	-0.901984	0.188115	-0.006386	0.206796	0.978363	-0.921369	0.379027	-0.086129
44	3846050													9.029625	-0.038007	-3.791393	-0.388294	-0.902118	0.188176	-0.006347	0.206812	0.978360	-0.921514	0.378697	-0.086030
45	3846216													9.020596	-0.041011	-3.768496	-0.387805	-0.902298	0.188323	-0.006350	0.206922	0.978337	-0.921719	0.378208	-0.085975
46	3846383													8.942540	-0.009488	-3.758993	-0.387261	-0.902524	0.188360	-0.006420	0.206936	0.978333	-0.921948	0.377661	-0.085933
47	3846550													8.981370	0.030140	-3.730555	-0.386747	-0.902774	0.188218	-0.006541	0.206780	0.978366	-0.922163	0.377148	-0.085877
48	3846716													8.864277	-0.006372	-3.729604	-0.386280	-0.902988	0.188147	-0.006776	0.206753	0.978370	-0.922357	0.376650	-0.085983
49	3846883													8.914935	-0.036824	-3.722729	-0.386060	-0.903146	0.187844	-0.007212	0.206580	0.978403	-0.922445	0.376368	-0.086266
50	3847050													8.761930	-0.017757	-3.716252	-0.386029	-0.903218	0.187562	-0.007706	0.206472	0.978422	-0.922454	0.376254	-0.086664
51	3847216													8.895212	0.013067	-3.727027	-0.386399	-0.903119	0.187277	-0.007981	0.206314	0.978453	-0.922297	0.376578	-0.086927
52	3847383													8.964174	-0.075803	-3.749913	-0.386840	-0.902958	0.187139	-0.008089	0.206254	0.978465	-0.922112	0.376995	-0.087092
53	3847550													9.046770	-0.094894	-3.754195	-0.387209	-0.902870	0.186803	-0.008295	0.206012	0.978514	-0.921955	0.377340	-0.087259
54	3847716													9.035952	-0.035623	-3.716028	-0.387406	-0.902875	0.186370	-0.008423	0.205614	0.978597	-0.921871	0.377544	-0.087261
55	3847883													9.071579	0.020914	-3.744010	-0.387402	-0.902923	0.186143	-0.008413	0.205364	0.978649	-0.921873	0.377564	-0.087155
56	3848050													9.047452	0.045175	-3.701218	-0.387130	-0.903039	0.186150	-0.008256	0.205279	0.978669	-0.921988	0.377335	-0.086925
57	3848216													8.922974	0.050853	-3.696969	-0.386751	-0.903170	0.186299	-0.008106	0.205341	0.978657	-0.922149	0.376986	-0.086737
58	3848383													8.918172	0.023357	-3.691148	-0.386480	-0.903234	0.186552	-0.008012	0.205549	0.978614	-0.922263	0.376721	-0.086677
59	3848550													8.965007	0.002630	-3.699284	-0.386251	-0.903258	0.186911	-0.008031	0.205922	0.978535	-0.922359	0.376459	-0.086792
60	3848716													8.988768	-0.017169	-3.713885	-0.386040	-0.903295	0.187166	-0.008099	0.206205	0.978475	-0.922446	0.376215	-0.086920
61	3848883													8.963501	-0.031378	-3.712612	-0.385823	-0.903324	0.187473	-0.008133	0.206529	0.978407	-0.922537	0.375967	-0.087031
62	3849050													8.939819	-0.106470	-3.744586	-0.385758	-0.903323	0.187611	-0.008174	0.206689	0.978373	-0.922564	0.375882	-0.087116
63	3849216													8.915120	-0.101117	-3.741307	-0.385784	-0.903327	0.187541	-0.008329	0.206678	0.978373	-0.922552	0.375879	-0.087257
64	3849383													8.824780	-0.045536	-3.746078	-0.386116	-0.903236	0.187293	-0.008431	0.206486	0.978413	-0.922412	0.376202	-0.087342
65	3849550													8.881989	-0.042871	-3.760137	-0.386695	-0.903067	0.186913	-0.008412	0.206126	0.978489	-0.922169	0.376804	-0.087305
66	3849716													8.921586	-0.060688	-3.766614	-0.387373	-0.902877	0.186425	-0.008468	0.205689	0.978581	-0.921884	0.377498	-0.087324
67	3849883													8.944808	-0.001126	-3.780313	-0.388081	-0.902671	0.185954	-0.008567	0.205292	0.978663	-0.921586	0.378207	-0.087403
68	3850050													8.950415	0.046730	-3.785362	-0.388740	-0.902449	0.185654	-0.008655	0.205071	0.978709	-0.921307	0.378856	-0.087529
69	3850216													8.910163	0.064983	-3.824988	-0.389367	-0.902216	0.185470	-0.008729	0.204967	0.978730	-0.921041	0.379467	-0.087683
70	3850383													8.925145	0.031540	-3.835929	-0.390020	-0.901934	0.185472	-0.008803	0.205067	0.978708	-0.920764	0.380083	-0.087920
71	3850550													8.920915	0.008959	-3.846674	-0.390627	-0.901674	0.185458	-0.008873	0.205143	0.978692	-0.920506	0.380658	-0.088135
72	3850716													8.934109	-0.009357	-3.845912	-0.391206	-0.901386	0.185635	-0.008914	0.205413	0.978635	-0.920260	0.381193	-0.088394
73	3850883													8.966117	-0.043741	-3.897013	-0.391687	-0.901176	0.185643	-0.008894	0.205464	0.978624	-0.920055	0.381664	-0.088493
74	3851216													8.967704	-0.055325	-3.887935	-0.392030	-0.900995	0.185796	-0.008823	0.205636	0.978589	-0.919910	0.381997	-0.088565
75	3851383													8.971638	-0.032239	-3.868832	-0.392228	-0.900890	0.185890	-0.008695	0.205706	0.978575	-0.919827	0.382208	-0.088517
76	3851550													8.946043	-0.024200	-3.877077	-0.392270	-0.900829	0.186092	-0.008540	0.205865	0.978543	-0.919810	0.382264	-0.088447
77	3851716													8.952323	-0.015413	-3.858130	-0.392172	-0.900862	0.186140	-0.008371	0.205837	0.978551	-0.919854	0.382202	-0.088264
78	3851883													8.963914	0.004996	-3.856425	-0.391945	-0.900954	0.186172	-0.008233	0.205790	0.978561	-0.919952	0.382010	-0.088076
79	3852050													9.023157	0.012980	-3.834485	-0.391519	-0.901127	0.186233	-0.008098	0.205756	0.978570	-0.920134	0.381620	-0.087855
80	3852216													8.994024	0.020490	-3.810593	-0.390885	-0.901389	0.186301	-0.008031	0.205736	0.978575	-0.920405	0.381014	-0.087658
81	3852383													9.010339	0.046997	-3.790700	-0.390217	-0.901655	0.186411	-0.007985	0.205768	0.978568	-0.920688	0.380365	-0.087494
82	3852550													8.983594	0.024305	-3.747874	-0.389386	-0.902001	0.186476	-0.008008	0.205763	0.978569	-0.921040	0.379548	-0.087344
83	3852716													8.903772	-0.047678	-3.730939	-0.388651	-0.902317	0.186480	-0.008266	0.205798	0.978560	-0.921348	0.378777	-0.087442
84	3852883													8.788418	-0.029009	-3.735361	-0.388178	-0.902558	0.186299	-0.008660	0.205714	0.978574	-0.921544	0.378247	-0.087670
85	3853050													8.799747	0.004107	-3.754041	-0.388074	-0.902662	0.186010	-0.008921	0.205497	0.978617	-0.921585	0.378117	-0.087801
86	3853216													8.899212	-0.051194	-3.745510	-0.388247	-0.902646	0.185729	-0.009012	0.205248	0.978669	-0.921511	0.378291	-0.087821
87	3853383													8.947405	-0.094033	-3.754664	-0.388495	-0.902622	0.185324	-0.009145	0.204888	0.978743	-0.921406	0.378541	-0.087853
88	3853550													8.955091	-0.031343	-3.748584	-0.388735	-0.902638	0.184744	-0.009314	0.204355	0.978853	-0.921303	0.378793	-0.087847
89	3853716													8.997638	0.048383	-3.756600	-0.388927	-0.902665	0.184208	-0.009359	0.203811	0.978966	-0.921221	0.379022	-0.087716
90	3853883													9.031034	0.080867	-3.766526	-0.388949	-0.902726	0.183862	-0.009281	0.203406	0.979050	-0.921213	0.379094	-0.087493
91	3854050													8.997419	0.080447	-3.746943	-0.388808	-0.902809	0.183750	-0.009217	0.203244	0.979085	-0.921273	0.378982	-0.087344
92	3854216													8.942546	0.087336	-3.746707	-0.388603	-0.902892	0.183778	-0.009186	0.203241	0.979086	-0.921359	0.378787	-0.087275
93	3854383													8.953273	0.075074	-3.755358	-0.388370	-0.902968	0.183894	-0.009284	0.203383	0.979055	-0.921457	0.378528	-0.087371
94	3854550													8.948298	0.058356	-3.742773	-0.388170	-0.903013	0.184097	-0.009477	0.203661	0.978996	-0.921539	0.378272	-0.087613
95	3854716													8.941660	0.008376	-3.739692	-0.387981	-0.903048	0.184322	-0.009711	0.203982	0.978927	-0.921616	0.378015	-0.087911
96	3854883													8.920620	-0.078291	-3.782384	-0.387837	-0.903105	0.184347	-0.009944	0.204090	0.978902	-0.921674	0.377822	-0.088134
97	3855050													9.018510	-0.099896	-3.791035	-0.387711	-0.903171	0.184286	-0.010317	0.204163	0.978882	-0.921723	0.377622	-0.088475
98	3855216													8.903601	-0.068077	-3.761048	-0.387594	-0.903276	0.184020	-0.010720	0.204028	0.978906	-0.921768	0.377446	-0.088763
99	3855383													8.947796	-0.042613	-3.749080	-0.387600	-0.903361	0.183587	-0.010964	0.203659	0.978981	-0.921762	0.377441	-0.088842
100	3855550													8.936231	-0.055145	-3.740862	-0.387621	-0.903451	0.183102	-0.011180	0.203224	0.979069	-0.921751	0.377461	-0.088874
101	3855716													8.928941	-0.023397	-3.742929	-0.387701	-0.903546	0.182461	-0.011471	0.202657	0.979183	-0.921714	0.377537	-0.088935
102	3855883													8.933699	0.043699	-3.749019	-0.387801	-0.903623	0.181866	-0.011806	0.202160	0.979281	-0.921668	0.377619	-0.089066
103	3856050													8.936060	0.037681	-3.746553	-0.387951	-0.903661	0.181360	-0.012170	0.201776	0.979356	-0.921599	0.377735	-0.089277
104	3856216													8.927217	0.032640	-3.765491	-0.388104	-0.903643	0.181124	-0.012523	0.201681	0.979371	-0.921531	0.377829	-0.089589
105	3856383													8.957423	-0.006652	-3.784409	-0.388339	-0.903577	0.180947	-0.012944	0.201687	0.979364	-0.921426	0.377983	-0.090019
106	3856550													8.956960	-0.029916	-3.773827	-0.388497	-0.903543	0.180779	-0.013380	0.201701	0.979356	-0.921353	0.378057	-0.090450
107	3856716													8.936251	-0.063414	-3.799333	-0.388671	-0.903472	0.180760	-0.013792	0.201868	0.979316	-0.921274	0.378138	-0.090921
108	3856883													8.970700	-0.099144	-3.827130	-0.388831	-0.903434	0.180603	-0.014117	0.201849	0.979315	-0.921201	0.378238	-0.091239
109	3857050													8.950523	-0.105491	-3.805549	-0.388943	-0.903423	0.180419	-0.014413	0.201782	0.979324	-0.921149	0.378301	-0.091503
110	3857216													8.962130	-0.098710	-3.804957	-0.388982	-0.903449	0.180204	-0.014608	0.201633	0.979352	-0.921129	0.378318	-0.091629
111	3857383													8.951132	-0.087137	-3.806238	-0.388931	-0.903526	0.179927	-0.014777	0.201397	0.979398	-0.921148	0.378259	-0.091681
112	3857550													8.991630	-0.060959	-3.800081	-0.388786	-0.903650	0.179618	-0.014915	0.201103	0.979457	-0.921207	0.378121	-0.091664
113	3857716													8.986278	-0.050323	-3.801228	-0.388468	-0.903831	0.179396	-0.014991	0.200859	0.979505	-0.921340	0.377817	-0.091577
114	3857883													8.986667	-0.026549	-3.802992	-0.388011	-0.904048	0.179292	-0.015067	0.200728	0.979531	-0.921532	0.377367	-0.091506
115	3858050													9.051676	-0.022634	-3.775659	-0.387414	-0.904291	0.179353	-0.015171	0.200773	0.979520	-0.921781	0.376759	-0.091501
116	3858216													9.021341	-0.049970	-3.774518	-0.386577	-0.904609	0.179558	-0.015267	0.200944	0.979484	-0.922131	0.375904	-0.091491
117	3858383													8.976528	-0.089161	-3.755882	-0.385742	-0.904935	0.179710	-0.015468	0.201101	0.979448	-0.922477	0.375035	-0.091571
118	3858550													8.921469	-0.110946	-3.757772	-0.384952	-0.905253	0.179803	-0.015718	0.201218	0.979420	-0.922803	0.374204	-0.091688
119	3858716													8.813404	-0.096038	-3.720325	-0.384413	-0.905472	0.179851	-0.015913	0.201292	0.979402	-0.923024	0.373633	-0.091788
120	3858883													8.904405	-0.115425	-3.721232	-0.384094	-0.905612	0.179832	-0.015907	0.201234	0.979414	-0.923157	0.373327	-0.091698
121	3859050													8.967952	-0.154596	-3.717246	-0.383888	-0.905706	0.179798	-0.015841	0.201149	0.979433	-0.923244	0.373144	-0.091566
122	3859216													8.980623	-0.116875	-3.718231	-0.383687	-0.905818	0.179660	-0.015791	0.200957	0.979473	-0.923328	0.372974	-0.091408
123	3859383													9.029637	-0.043363	-3.682744	-0.383469	-0.905935	0.179539	-0.015656	0.200748	0.979518	-0.923421	0.372804	-0.091164
124	3859550													9.086965	0.008397	-3.654041	-0.383105	-0.906085	0.179554	-0.015415	0.200629	0.979546	-0.923576	0.372502	-0.090830
125	3859716													9.013129	-0.000640	-3.680124	-0.382618	-0.906257	0.179727	-0.015093	0.200635	0.979550	-0.923783	0.372081	-0.090445
126	3859883													8.953349	-0.025571	-3.662361	-0.382169	-0.906408	0.179919	-0.014837	0.200691	0.979542	-0.923973	0.371681	-0.090146
127	3860050													8.936899	-0.024223	-3.668592	-0.381783	-0.906516	0.180197	-0.014659	0.200880	0.979506	-0.924136	0.371317	-0.089982
128	3860216													8.967455	-0.030506	-3.684453	-0.381455	-0.906608	0.180429	-0.014583	0.201066	0.979469	-0.924272	0.370992	-0.089918
129	3860383													9.008947	-0.072073	-3.688501	-0.381131	-0.906719	0.180555	-0.014595	0.201172	0.979447	-0.924406	0.370663	-0.089907
130	3860550													9.028643	-0.062704	-3.704555	-0.380742	-0.906877	0.180581	-0.014591	0.201158	0.979450	-0.924566	0.370283	-0.089822
131	3860716													9.044759	-0.116533	-3.720809	-0.380239	-0.907117	0.180437	-0.014671	0.200982	0.979485	-0.924772	0.369791	-0.089730
132	3860883													8.996408	-0.098236	-3.722846	-0.379524	-0.907490	0.180062	-0.014848	0.200573	0.979566	-0.925063	0.369095	-0.089597
133	3861050													8.943042	-0.063989	-3.719370	-0.378948	-0.907828	0.179574	-0.015026	0.200057	0.979669	-0.925296	0.368545	-0.089452
134	3861216													8.995964	-0.036883	-3.738667	-0.378358	-0.908172	0.179076	-0.015109	0.199491	0.979783	-0.925536	0.368003	-0.089201
135	3861383													8.988704	-0.040793	-3.705604	-0.377741	-0.908520	0.178612	-0.015193	0.198959	0.979890	-0.925786	0.367431	-0.088958
136	3861550													9.007697	0.002446	-3.665673	-0.377097	-0.908871	0.178190	-0.015301	0.198481	0.979985	-0.926047	0.366823	-0.088753
137	3861717													9.051451	0.041548	-3.676738	-0.376327	-0.909250	0.177885	-0.015422	0.198120	0.980056	-0.926358	0.366079	-0.088581
138	3861883													9.041097	0.022445	-3.684952	-0.375375	-0.909670	0.177749	-0.015489	0.197903	0.980099	-0.926744	0.365151	-0.088377
139	3862050													9.014699	-0.014147	-3.673849	-0.374343	-0.910079	0.177831	-0.015563	0.197914	0.980096	-0.927160	0.364125	-0.088251
140	3862217													9.011739	-0.022492	-3.662187	-0.373259	-0.910501	0.177947	-0.015624	0.197952	0.980087	-0.927596	0.363046	-0.088113
141	3862383													8.990782	-0.031710	-3.657418	-0.372138	-0.910934	0.178082	-0.015707	0.198015	0.980073	-0.928045	0.361925	-0.087997
142	3862550													9.015923	-0.042452	-3.646877	-0.371050	-0.911355	0.178196	-0.015764	0.198049	0.980065	-0.928479	0.360844	-0.087852
143	3862717													9.025661	-0.049410	-3.622335	-0.369948	-0.911773	0.178348	-0.015819	0.198121	0.980050	-0.928918	0.359746	-0.087718
144	3862883													9.031112	-0.040947	-3.571475	-0.368883	-0.912171	0.178520	-0.015799	0.198190	0.980036	-0.929341	0.358699	-0.087520
145	3863050													9.018205	-0.078021	-3.529992	-0.367844	-0.912569	0.178629	-0.015705	0.198167	0.980042	-0.929755	0.357697	-0.087227
146	3863217													8.928981	-0.118389	-3.507405	-0.366965	-0.912915	0.178667	-0.015523	0.198050	0.980069	-0.930105	0.356877	-0.086849
147	3863383													8.922121	-0.162424	-3.515719	-0.366465	-0.913152	0.178485	-0.015371	0.197745	0.980133	-0.930305	0.356441	-0.086503
148	3863550													8.946939	-0.139304	-3.519876	-0.366246	-0.913334	0.178004	-0.015309	0.197184	0.980247	-0.930392	0.356286	-0.086200
149	3863717													9.002713	-0.081590	-3.522867	-0.366233	-0.913458	0.177389	-0.015263	0.196506	0.980384	-0.930398	0.356342	-0.085909
150	3863883													9.133654	-0.039114	-3.551807	-0.366221	-0.913591	0.176732	-0.015219	0.195781	0.980529	-0.930403	0.356401	-0.085603
151	3864050													9.139565	-0.048385	-3.568615	-0.366094	-0.913763	0.176105	-0.015166	0.195076	0.980671	-0.930454	0.356346	-0.085274
152	3864217													9.198780	-0.044319	-3.592475	-0.365768	-0.914018	0.175457	-0.015277	0.194391	0.980805	-0.930580	0.356067	-0.085066
153	3864383													9.088738	0.007902	-3.544988	-0.365181	-0.914348	0.174960	-0.015425	0.193857	0.980909	-0.930809	0.355511	-0.084897
154	3864550													9.118853	-0.001543	-3.559970	-0.364498	-0.914669	0.174706	-0.015442	0.193524	0.980974	-0.931076	0.354865	-0.084664
155	3864717													9.128644	-0.053420	-3.582580	-0.363550	-0.915066	0.174602	-0.015357	0.193289	0.981022	-0.931448	0.353969	-0.084323
156	3864883													9.081156	-0.106662	-3.568072	-0.362388	-0.915573	0.174358	-0.015396	0.192929	0.981092	-0.931900	0.352852	-0.084011
157	3865050													9.125637	-0.067475	-3.558041	-0.361106	-0.916131	0.174086	-0.015420	0.192523	0.981171	-0.932397	0.351622	-0.083648
158	3865217													9.185958	-0.012034	-3.505892	-0.359503	-0.916809	0.173835	-0.015435	0.192107	0.981253	-0.933016	0.350080	-0.083214
159	3865383													9.151278	0.034298	-3.448355	-0.357582	-0.917576	0.173752	-0.015317	0.191791	0.981316	-0.933756	0.348240	-0.082635
160	3865550													9.154326	0.011135	-3.438289	-0.355489	-0.918373	0.173834	-0.015173	0.191628	0.981350	-0.934557	0.346221	-0.082056
161	3865717													9.123741	0.019862	-3.408977	-0.353308	-0.919187	0.173978	-0.015131	0.191562	0.981364	-0.935385	0.344092	-0.081589
162	3865883													9.048319	0.006462	-3.377059	-0.351189	-0.919960	0.174183	-0.015219	0.191616	0.981352	-0.936181	0.341989	-0.081294
163	3866050													9.019737	-0.031020	-3.373650	-0.349348	-0.920614	0.174429	-0.015351	0.191757	0.981322	-0.936867	0.340145	-0.081122
164	3866217													9.054229	-0.034773	-3.344423	-0.347728	-0.921187	0.174640	-0.015526	0.191895	0.981293	-0.937467	0.338512	-0.081029
165	3866383													9.012667	-0.101936	-3.333766	-0.346405	-0.921671	0.174718	-0.015728	0.191929	0.981283	-0.937953	0.337173	-0.080982
166	3866550													9.081215	-0.112917	-3.355568	-0.345312	-0.922088	0.174679	-0.015992	0.191883	0.981287	-0.938352	0.336056	-0.081006
167	3866717													9.013999	-0.093399	-3.335374	-0.344481	-0.922440	0.174464	-0.016240	0.191666	0.981326	-0.938653	0.335215	-0.081005
168	3866883													9.032613	-0.089898	-3.345068	-0.343890	-0.922707	0.174216	-0.016360	0.191391	0.981377	-0.938867	0.334636	-0.080913
169	3867050													9.071824	-0.089185	-3.362641	-0.343440	-0.922931	0.173916	-0.016434	0.191057	0.981441	-0.939031	0.334209	-0.080784
170	3867217													9.110553	-0.031813	-3.363518	-0.343055	-0.923133	0.173608	-0.016503	0.190719	0.981506	-0.939171	0.333845	-0.080661
171	3867383													9.150765	0.007054	-3.329786	-0.342659	-0.923310	0.173446	-0.016525	0.190518	0.981545	-0.939315	0.333469	-0.080541
172	3867550													9.202342	0.029547	-3.317037	-0.342155	-0.923485	0.173511	-0.016488	0.190528	0.981543	-0.939499	0.332979	-0.080417
173	3867717													9.210375	0.043158	-3.328276	-0.341457	-0.923692	0.173783	-0.016445	0.190739	0.981503	-0.939754	0.332283	-0.080319
174	3867883													9.197537	0.010707	-3.341459	-0.340632	-0.923897	0.174310	-0.016425	0.191217	0.981410	-0.940053	0.331437	-0.080309
175	3868050													9.209801	-0.028324	-3.324848	-0.339688	-0.924123	0.174951	-0.016460	0.191824	0.981291	-0.940394	0.330454	-0.080371
176	3868217													9.209132	-0.074900	-3.319643	-0.338564	-0.924412	0.175605	-0.016589	0.192461	0.981164	-0.940797	0.329274	-0.080496
177	3868383													9.248118	-0.121862	-3.314681	-0.337243	-0.924789	0.176161	-0.016711	0.192974	0.981062	-0.941269	0.327913	-0.080534
178	3868550													9.230906	-0.133249	-3.295035	-0.335632	-0.925295	0.176580	-0.016803	0.193304	0.980995	-0.941843	0.326286	-0.080427
179	3868717													9.209213	-0.165801	-3.281511	-0.333862	-0.925888	0.176828	-0.016887	0.193437	0.980967	-0.942471	0.324522	-0.080216
180	3868883													9.184004	-0.131291	-3.272622	-0.331913	-0.926574	0.176901	-0.016972	0.193368	0.980980	-0.943157	0.322597	-0.079907
181	3869050													9.203830	-0.113377	-3.261327	-0.329893	-0.927309	0.176830	-0.017031	0.193133	0.981025	-0.943865	0.320622	-0.079506
182	3869217													9.218765	-0.068914	-3.224215	-0.327751	-0.928099	0.176669	-0.017144	0.192810	0.981086	-0.944609	0.318523	-0.079105
183	3869383													9.271007	-0.053711	-3.230580	-0.325448	-0.928943	0.176486	-0.017242	0.192447	0.981156	-0.945403	0.316273	-0.078648
184	3869550													9.300344	-0.028386	-3.190592	-0.322896	-0.929860	0.176348	-0.017318	0.192103	0.981222	-0.946276	0.313779	-0.078133
185	3869717													9.364204	-0.059933	-3.155004	-0.320175	-0.930826	0.176215	-0.017478	0.191778	0.981283	-0.947197	0.311103	-0.077672
186	3869883													9.268350	-0.077823	-3.120947	-0.317196	-0.931868	0.176094	-0.017675	0.191460	0.981341	-0.948195	0.308165	-0.077201
187	3870050													9.232919	-0.120393	-3.110672	-0.314298	-0.932898	0.175835	-0.018056	0.191062	0.981412	-0.949153	0.305281	-0.076895
188	3870217													9.150146	-0.142288	-3.063378	-0.311388	-0.933961	0.175368	-0.018621	0.190504	0.981510	-0.950100	0.302365	-0.076712
189	3870383													9.057024	-0.099903	-3.051432	-0.308934	-0.934875	0.174837	-0.019082	0.189885	0.981621	-0.950892	0.299920	-0.076501
190	3870550													9.192366	-0.102630	-3.013338	-0.306718	-0.935696	0.174348	-0.019367	0.189274	0.981733	-0.951603	0.297739	-0.076175
191	3870717													9.233295	-0.146874	-2.977185	-0.304701	-0.936451	0.173831	-0.019627	0.188644	0.981849	-0.952246	0.295759	-0.075860
192	3870883													9.257491	-0.084572	-2.948761	-0.302666	-0.937209	0.173297	-0.019876	0.187992	0.981969	-0.952889	0.293765	-0.075527
193	3871050													9.306889	-0.035484	-2.909577	-0.300713	-0.937912	0.172894	-0.020021	0.187454	0.982069	-0.953505	0.291859	-0.075148
194	3871217													9.365443	-0.002662	-2.878139	-0.298645	-0.938607	0.172706	-0.019991	0.187077	0.982142	-0.954155	0.289860	-0.074633
195	3871383													9.346977	-0.021679	-2.861029	-0.296448	-0.939299	0.172732	-0.019833	0.186877	0.982183	-0.954843	0.287740	-0.074028
196	3871550													9.326147	-0.082640	-2.822711	-0.294222	-0.939972	0.172878	-0.019745	0.186824	0.982195	-0.955533	0.285570	-0.073527
197	3871717													9.294238	-0.061412	-2.807528	-0.292061	-0.940610	0.173072	-0.019785	0.186866	0.982186	-0.956195	0.283434	-0.073186
198	3871883													9.296814	-0.063400	-2.780810	-0.289990	-0.941203	0.173331	-0.019918	0.187010	0.982156	-0.956822	0.281363	-0.072978
199	3872050													9.357732	-0.076909	-2.770363	-0.287953	-0.941768	0.173657	-0.020034	0.187222	0.982113	-0.957435	0.279324	-0.072778
200	3872217													9.333996	-0.145686	-2.765292	-0.285873	-0.942345	0.173962	-0.020166	0.187414	0.982074	-0.958055	0.277240	-0.072580
201	3872383													9.393525	-0.168996	-2.770002	-0.283862	-0.942929	0.174088	-0.020372	0.187446	0.982064	-0.958649	0.275224	-0.072419
202	3872550													9.289667	-0.176612	-2.722361	-0.281826	-0.943549	0.174037	-0.020579	0.187292	0.982089	-0.959245	0.273197	-0.072201
203	3872717													9.283783	-0.181780	-2.756608	-0.280000	-0.944124	0.173868	-0.020612	0.186983	0.982147	-0.959779	0.271417	-0.071815
204	3872883													9.294682	-0.179504	-2.742695	-0.278320	-0.944671	0.173594	-0.020548	0.186550	0.982231	-0.960269	0.269808	-0.071332
205	3873050													9.332997	-0.166067	-2.710998	-0.276714	-0.945202	0.173271	-0.020359	0.186038	0.982332	-0.960737	0.268297	-0.070723
206	3873217													9.414217	-0.127037	-2.706581	-0.275103	-0.945729	0.172957	-0.020132	0.185526	0.982433	-0.961204	0.266789	-0.070078
207	3873383													9.444615	-0.092043	-2.663862	-0.273319	-0.946296	0.172685	-0.019905	0.185046	0.982528	-0.961718	0.265106	-0.069413
208	3873550													9.442474	-0.041690	-2.637093	-0.271370	-0.946880	0.172560	-0.019632	0.184695	0.982600	-0.962275	0.263261	-0.068710
209	3873717													9.454382	-0.078402	-2.658916	-0.269282	-0.947469	0.172595	-0.019322	0.184494	0.982644	-0.962867	0.261274	-0.067988
210	3873883													9.396795	-0.096880	-2.648147	-0.267104	-0.948074	0.172658	-0.019118	0.184345	0.982676	-0.963478	0.259176	-0.067364
211	3874050													9.403567	-0.062806	-2.629624	-0.264904	-0.948672	0.172765	-0.018936	0.184250	0.982697	-0.964089	0.257049	-0.066773
212	3874217													9.412678	-0.085427	-2.603637	-0.262711	-0.949247	0.172955	-0.018748	0.184240	0.982702	-0.964692	0.254924	-0.066199
213	3874383													9.430806	-0.113292	-2.575898	-0.260441	-0.949841	0.173125	-0.018591	0.184214	0.982710	-0.965311	0.252720	-0.065635
214	3874550													9.399253	-0.107270	-2.564652	-0.258174	-0.950430	0.173289	-0.018396	0.184174	0.982722	-0.965923	0.250525	-0.065033
215	3874717													9.382163	-0.132365	-2.538818	-0.255978	-0.951004	0.173399	-0.018170	0.184077	0.982744	-0.966512	0.248410	-0.064399
216	3874883													9.394888	-0.111325	-2.526433	-0.253821	-0.951579	0.173416	-0.017953	0.183892	0.982783	-0.967085	0.246338	-0.063759
217	3875050													9.443471	-0.113683	-2.497848	-0.251694	-0.952146	0.173400	-0.017710	0.183669	0.982829	-0.967645	0.244301	-0.063091
218	3875217													9.568932	-0.101203	-2.463983	-0.249369	-0.952764	0.173367	-0.017494	0.183425	0.982878	-0.968251	0.242066	-0.062408
219	3875383													9.566673	-0.094041	-2.428641	-0.246746	-0.953455	0.173323	-0.017298	0.183158	0.982931	-0.968926	0.239536	-0.061686
220	3875550													9.633587	-0.044717	-2.413776	-0.243829	-0.954206	0.173313	-0.017101	0.182910	0.982981	-0.969667	0.236716	-0.060917
221	3875717													9.584217	-0.062378	-2.391108	-0.240512	-0.955042	0.173347	-0.016812	0.182661	0.983032	-0.970501	0.233516	-0.059989
222	3875883													9.531981	-0.158169	-2.346655	-0.237023	-0.955929	0.173262	-0.016669	0.182320	0.983098	-0.971361	0.230129	-0.059149
223	3876050													9.401954	-0.152979	-2.321453	-0.233418	-0.956874	0.172939	-0.016693	0.181769	0.983200	-0.972233	0.226610	-0.058402
224	3876217													9.461948	-0.079191	-2.296093	-0.230008	-0.957777	0.172510	-0.016678	0.181116	0.983320	-0.973046	0.223294	-0.057632
225	3876383													9.461100	-0.012710	-2.278652	-0.226720	-0.958622	0.172168	-0.016514	0.180529	0.983431	-0.973820	0.220121	-0.056760
226	3876550													9.501538	-0.061180	-2.226270	-0.223471	-0.959429	0.171918	-0.016511	0.180079	0.983514	-0.974571	0.216949	-0.056084
227	3876717													9.505869	0.008898	-2.183985	-0.220275	-0.960210	0.171687	-0.016552	0.179664	0.983589	-0.975297	0.213818	-0.055469
228	3876883													9.527354	-0.011258	-2.137330	-0.217155	-0.960936	0.171596	-0.016499	0.179379	0.983642	-0.975998	0.210772	-0.054807
229	3877050													9.577221	-0.018216	-2.091155	-0.213970	-0.961662	0.171532	-0.016484	0.179128	0.983688	-0.976701	0.207652	-0.054180
230	3877217													9.567909	-0.091761	-2.036450	-0.210772	-0.962394	0.171385	-0.016565	0.178815	0.983743	-0.977395	0.204506	-0.053632
231	3877383													9.459022	-0.258507	-2.021898	-0.207571	-0.963225	0.170624	-0.017109	0.177971	0.983887	-0.978070	0.201307	-0.053421
232	3877550													9.353038	-0.286517	-2.023973	-0.204779	-0.964119	0.168937	-0.018193	0.176314	0.984166	-0.978639	0.198463	-0.053646
233	3877717													9.372443	-0.338416	-2.000167	-0.202512	-0.965060	0.166274	-0.019681	0.173769	0.984590	-0.979082	0.196119	-0.054184
234	3877883													9.474206	-0.261343	-1.971265	-0.200655	-0.966028	0.162871	-0.021232	0.170502	0.985129	-0.979432	0.194213	-0.054722
235	3878050													9.568226	-0.214737	-1.948896	-0.199083	-0.966982	0.159098	-0.022467	0.166809	0.985733	-0.979725	0.192669	-0.054934
236	3878217													9.777806	-0.140045	-1.936219	-0.197507	-0.967932	0.155237	-0.023393	0.162965	0.986355	-0.980022	0.191180	-0.054830
237	3878384													9.668952	-0.013998	-1.880502	-0.195654	-0.968885	0.151597	-0.024032	0.159276	0.986942	-0.980378	0.189456	-0.054447
238	3878550													9.612357	0.066931	-1.866028	-0.193793	-0.969723	0.148601	-0.024162	0.156144	0.987439	-0.980745	0.187768	-0.053690
239	3878717													9.545522	0.103436	-1.848621	-0.191929	-0.970439	0.146325	-0.024039	0.153701	0.987825	-0.981114	0.186075	-0.052828
240	3878884													9.540929	0.151398	-1.808294	-0.190083	-0.971024	0.144848	-0.023850	0.152062	0.988083	-0.981478	0.184363	-0.052063
241	3879050													9.610849	0.182221	-1.774888	-0.188186	-0.971483	0.144249	-0.023605	0.151304	0.988205	-0.981850	0.182562	-0.051405
242	3879217													9.650379	0.176474	-1.797056	-0.186104	-0.971840	0.144542	-0.023311	0.151438	0.988192	-0.982253	0.180537	-0.050838
243	3879384													9.661545	0.123613	-1.755962	-0.183891	-0.972103	0.145600	-0.023055	0.152351	0.988058	-0.982676	0.178338	-0.050427
244	3879550													9.678844	0.032556	-1.777621	-0.181496	-0.972305	0.147249	-0.022861	0.153867	0.987827	-0.983126	0.175920	-0.050154
245	3879717													9.698294	-0.086082	-1.752842	-0.178952	-0.972475	0.149226	-0.022746	0.155724	0.987539	-0.983595	0.173328	-0.049987
246	3879884													9.732802	-0.131382	-1.751294	-0.176218	-0.972642	0.151377	-0.022668	0.157753	0.987218	-0.984090	0.170534	-0.049846
247	3880050													9.754236	-0.160870	-1.714615	-0.173185	-0.972845	0.153556	-0.022619	0.159800	0.986890	-0.984629	0.167442	-0.049680
248	3880217													9.723265	-0.197830	-1.674907	-0.169910	-0.973065	0.155803	-0.022535	0.161897	0.986550	-0.985202	0.164114	-0.049436
249	3880384													9.746939	-0.215877	-1.660104	-0.166335	-0.973329	0.157998	-0.022384	0.163916	0.986220	-0.985815	0.160506	-0.049052
250	3880550													9.666476	-0.203668	-1.621173	-0.162612	-0.973600	0.160186	-0.022174	0.165912	0.985891	-0.986441	0.156766	-0.048567
251	3880717													9.665901	-0.184189	-1.601112	-0.158752	-0.973877	0.162362	-0.021874	0.167877	0.985565	-0.987076	0.152909	-0.047953
252	3880884													9.652446	-0.194082	-1.524976	-0.154798	-0.974157	0.164488	-0.021490	0.169776	0.985248	-0.987712	0.148979	-0.047215
253	3881050													9.688478	-0.201061	-1.509608	-0.150787	-0.974425	0.166613	-0.021002	0.171659	0.984932	-0.988343	0.145015	-0.046349
254	3881217													9.667530	-0.189097	-1.451396	-0.146665	-0.974704	0.168648	-0.020490	0.173448	0.984630	-0.988974	0.140956	-0.045410
255	3881384													9.685291	-0.124052	-1.431315	-0.142644	-0.974951	0.170658	-0.019939	0.175216	0.984328	-0.989573	0.137005	-0.044433
256	3881550													9.735261	-0.104875	-1.402793	-0.138714	-0.975166	0.172657	-0.019364	0.176980	0.984024	-0.990143	0.133155	-0.043433
257	3881717													9.638206	-0.142532	-1.372589	-0.134873	-0.975361	0.174583	-0.018819	0.178683	0.983727	-0.990684	0.129393	-0.042455
258	3881884													9.609982	-0.199049	-1.335838	-0.131335	-0.975535	0.176301	-0.018510	0.180224	0.983451	-0.991165	0.125898	-0.041727
259	3882050													9.535527	-0.196249	-1.309921	-0.128139	-0.975712	0.177672	-0.018418	0.181459	0.983226	-0.991585	0.122717	-0.041223
260	3882217													9.508657	-0.138402	-1.294015	-0.125475	-0.975848	0.178819	-0.018377	0.182498	0.983034	-0.991927	0.120060	-0.040832
261	3882384													9.552695	-0.186340	-1.250879	-0.123243	-0.975944	0.179844	-0.018294	0.183430	0.982863	-0.992208	0.117841	-0.040461
262	3882550													9.638906	-0.197722	-1.247295	-0.121290	-0.976053	0.180579	-0.018232	0.184082	0.982742	-0.992450	0.115904	-0.040123
263	3882717													9.730201	-0.184912	-1.194192	-0.119381	-0.976204	0.181035	-0.018036	0.184442	0.982678	-0.992685	0.114048	-0.039626
264	3882884													9.846774	-0.185669	-1.142256	-0.117242	-0.976420	0.181267	-0.017794	0.184562	0.982660	-0.992944	0.111984	-0.039013
265	3883050													9.864794	-0.114421	-1.117469	-0.114731	-0.976696	0.181388	-0.017459	0.184548	0.982668	-0.993243	0.109576	-0.038226
266	3883217													9.850200	-0.105346	-1.106284	-0.111864	-0.977018	0.181446	-0.017065	0.184454	0.982693	-0.993577	0.106832	-0.037306
267	3883384													9.781894	-0.079851	-1.077541	-0.108756	-0.977372	0.181428	-0.016692	0.184281	0.982732	-0.993928	0.103850	-0.036356
268	3883550													9.792061	-0.082050	-1.041240	-0.105465	-0.977734	0.181421	-0.016373	0.184121	0.982767	-0.994288	0.100677	-0.035426
269	3883717													9.785217	-0.037706	-1.002647	-0.101999	-0.978101	0.181426	-0.016113	0.183977	0.982798	-0.994654	0.097321	-0.034526
270	3883884													9.856427	-0.026551	-0.962799	-0.098372	-0.978465	0.181461	-0.015906	0.183869	0.982822	-0.995023	0.093796	-0.033651
271	3884050													9.862376	-0.054983	-0.887228	-0.094477	-0.978838	0.181522	-0.015682	0.183778	0.982843	-0.995403	0.090010	-0.032713
272	3884217													9.858213	-0.112712	-0.860181	-0.090533	-0.979217	0.181486	-0.015671	0.183612	0.982874	-0.995770	0.086139	-0.031968
273	3884384													9.703921	-0.050204	-0.836261	-0.086497	-0.979604	0.181365	-0.015816	0.183375	0.982916	-0.996127	0.082151	-0.031355
274	3884550													9.686046	-0.022724	-0.798419	-0.082875	-0.979944	0.181224	-0.016022	0.183136	0.982957	-0.996431	0.078559	-0.030878
275	3884717													9.820466	0.043558	-0.759294	-0.079610	-0.980243	0.181071	-0.016241	0.182899	0.982998	-0.996694	0.075315	-0.030480
276	3884884													9.709311	-0.016537	-0.694476	-0.076556	-0.980546	0.180743	-0.016612	0.182505	0.983065	-0.996927	0.072257	-0.030261
277	3885050													9.728662	-0.204324	-0.653778	-0.073902	-0.980897	0.179943	-0.017378	0.181675	0.983205	-0.997114	0.069534	-0.030473
278	3885217													9.747988	-0.249966	-0.647631	-0.071451	-0.981348	0.178471	-0.018730	0.180217	0.983449	-0.997268	0.066926	-0.031258
279	3885384													9.735654	-0.186856	-0.641632	-0.069166	-0.981860	0.176544	-0.020500	0.178329	0.983757	-0.997394	0.064424	-0.032463
280	3885550													9.735952	-0.130630	-0.633031	-0.067119	-0.982375	0.174453	-0.022263	0.176279	0.984089	-0.997497	0.062167	-0.033702
281	3885717													9.745960	-0.116925	-0.638607	-0.065177	-0.982839	0.172568	-0.023664	0.174410	0.984389	-0.997593	0.060076	-0.034625
282	3885884													9.775299	-0.130131	-0.604300	-0.063325	-0.983237	0.170983	-0.024633	0.172815	0.984646	-0.997689	0.058140	-0.035163
283	3886050													9.749554	-0.153447	-0.610814	-0.061475	-0.983573	0.169723	-0.025212	0.171520	0.984858	-0.997790	0.056265	-0.035342
284	3886217													9.748425	-0.105100	-0.593677	-0.059635	-0.983829	0.168891	-0.025377	0.170631	0.985008	-0.997898	0.054455	-0.035143
285	3886384													9.777970	-0.085278	-0.559687	-0.057785	-0.983997	0.168553	-0.025179	0.170218	0.985085	-0.998011	0.052679	-0.034612
286	3886550													9.759819	-0.079341	-0.554907	-0.055877	-0.984074	0.168747	-0.024737	0.170324	0.985078	-0.998131	0.050869	-0.033861
287	3886717													9.824556	-0.059927	-0.538422	-0.053865	-0.984073	0.169410	-0.024185	0.170892	0.984993	-0.998255	0.048960	-0.033005
288	3886884													9.884151	-0.038059	-0.510102	-0.051660	-0.984028	0.170351	-0.023695	0.171738	0.984858	-0.998384	0.046842	-0.032188
289	3887050													9.859117	0.015509	-0.479011	-0.049332	-0.983935	0.171575	-0.023267	0.172870	0.984670	-0.998511	0.044583	-0.031421
290	3887217													9.829013	-0.149740	-0.460809	-0.046892	-0.983821	0.172906	-0.022977	0.174113	0.984458	-0.998636	0.042190	-0.030770
291	3887384													9.881860	-0.172365	-0.455358	-0.044328	-0.983713	0.174196	-0.023007	0.175327	0.984241	-0.998752	0.039622	-0.030404
292	3887550													9.891751	-0.235264	-0.466035	-0.041520	-0.983650	0.175241	-0.023337	0.176299	0.984060	-0.998865	0.036769	-0.030276
293	3887717													9.907784	-0.228492	-0.417450	-0.038500	-0.983610	0.176151	-0.023787	0.177134	0.983899	-0.998975	0.033690	-0.030217
294	3887884													9.946191	-0.189900	-0.399174	-0.035170	-0.983579	0.177016	-0.024191	0.177912	0.983749	-0.999089	0.030316	-0.030051
295	3888050													9.935546	-0.196744	-0.360482	-0.031487	-0.983545	0.177897	-0.024437	0.178689	0.983602	-0.999205	0.026623	-0.029662
296	3888217													9.805980	-0.205587	-0.306145	-0.027670	-0.983491	0.178829	-0.024527	0.179511	0.983450	-0.999316	0.022826	-0.029089
297	3888384													9.788612	-0.226159	-0.300857	-0.023942	-0.983404	0.179844	-0.024473	0.180418	0.983285	-0.999414	0.019140	-0.028386
298	3888550													9.668040	-0.226512	-0.267851	-0.020300	-0.983294	0.180887	-0.024278	0.181356	0.983118	-0.999499	0.015566	-0.027554
299	3888717													9.709841	-0.202124	-0.234966	-0.017040	-0.983136	0.182082	-0.023841	0.182456	0.982925	-0.999571	0.012408	-0.026548
300	3888884													9.740494	-0.208078	-0.232127	-0.014005	-0.982940	0.183393	-0.023270	0.183682	0.982710	-0.999631	0.009495	-0.025446
301	3889050													9.798431	-0.219791	-0.180684	-0.011123	-0.982728	0.184719	-0.022670	0.184931	0.982490	-0.999681	0.006741	-0.024335
302	3889217													9.865012	-0.194680	-0.134871	-0.008233	-0.982506	0.186047	-0.021939	0.186186	0.982270	-0.999725	0.004006	-0.023088
303	3889384													9.956719	-0.168054	-0.085864	-0.005091	-0.982273	0.187387	-0.021137	0.187453	0.982046	-0.999764	0.001039	-0.021716
304	3889550													9.989824	-0.129806	-0.037185	-0.001525	-0.982025	0.188743	-0.020227	0.188735	0.981820	-0.999794	-0.002321	-0.020152
305	3889717													9.924384	-0.137566	0.018133	0.002406	-0.981769	0.190062	-0.019317	0.189981	0.981598	-0.999811	-0.006034	-0.018508
306	3889884													9.811899	-0.152508	0.031837	0.006440	-0.981520	0.191253	-0.018538	0.191107	0.981394	-0.999807	-0.009865	-0.016964
307	3890050													9.808812	-0.154110	0.068024	0.010465	-0.981294	0.192228	-0.018061	0.192022	0.981224	-0.999782	-0.013740	-0.015714
308	3890217													9.802542	-0.162778	0.087368	0.014429	-0.981101	0.192957	-0.017792	0.192694	0.981098	-0.999738	-0.017589	-0.014675
309	3890384													9.869249	-0.123557	0.166325	0.018333	-0.980931	0.193491	-0.017665	0.193175	0.981005	-0.999676	-0.021403	-0.013787
310	3890550													9.936832	-0.110033	0.216220	0.022431	-0.980751	0.193971	-0.017569	0.193603	0.980923	-0.999594	-0.025411	-0.012888
311	3890717													9.901940	-0.142916	0.230954	0.026570	-0.980578	0.194322	-0.017489	0.193905	0.980864	-0.999494	-0.029461	-0.011997
312	3890884													9.855941	-0.158693	0.275572	0.030839	-0.980421	0.194484	-0.017455	0.194019	0.980843	-0.999372	-0.033643	-0.011130
313	3891050													9.771930	-0.159003	0.316298	0.034824	-0.980296	0.194440	-0.017410	0.193934	0.980860	-0.999242	-0.037543	-0.010313
314	3891217													9.719367	-0.114228	0.345198	0.038563	-0.980189	0.194276	-0.017256	0.193738	0.980902	-0.999107	-0.041179	-0.009443
315	3891384													9.755910	-0.111966	0.379056	0.041990	-0.980094	0.194045	-0.017007	0.193487	0.980955	-0.998973	-0.044490	-0.008543
316	3891550													9.818980	-0.118207	0.443149	0.045221	-0.980010	0.193742	-0.016673	0.193173	0.981023	-0.998838	-0.047593	-0.007605
317	3891717													9.849226	-0.102960	0.511738	0.048443	-0.979924	0.193399	-0.016309	0.192824	0.981098	-0.998693	-0.050682	-0.006641
318	3891884													9.813840	-0.077190	0.522396	0.051642	-0.979850	0.192943	-0.015954	0.192367	0.981193	-0.998538	-0.053749	-0.005698
319	3892050													9.816837	-0.058848	0.549666	0.054778	-0.979773	0.192467	-0.015644	0.191890	0.981292	-0.998376	-0.056765	-0.004816
320	3892217													9.801978	-0.027920	0.575047	0.057817	-0.979677	0.192066	-0.015381	0.191491	0.981374	-0.998209	-0.059694	-0.003997
321	3892384													9.842238	-0.042283	0.607144	0.060764	-0.979572	0.191694	-0.015107	0.191125	0.981449	-0.998038	-0.062533	-0.003185
322	3892550													9.881264	-0.056290	0.627336	0.063768	-0.979441	0.191385	-0.014887	0.190820	0.981512	-0.997854	-0.065438	-0.002413
323	3892717													9.899149	-0.058670	0.637885	0.066925	-0.979299	0.191038	-0.014729	0.190477	0.981581	-0.997649	-0.068506	-0.001676
324	3892884													9.941705	-0.006225	0.660618	0.070307	-0.979110	0.190788	-0.014557	0.190234	0.981631	-0.997419	-0.071793	-0.000878
325	3893050													9.901932	-0.003601	0.669598	0.073954	-0.978858	0.190705	-0.014344	0.190165	0.981647	-0.997158	-0.075332	0.000023
326	3893217													9.908873	-0.063580	0.688371	0.077874	-0.978550	0.190724	-0.014101	0.190205	0.981643	-0.996864	-0.079134	0.001014
327	3893384													9.911515	-0.100538	0.716761	0.082165	-0.978213	0.190654	-0.013962	0.190152	0.981655	-0.996521	-0.083320	0.001966
328	3893550													9.884898	-0.090992	0.745240	0.086776	-0.977831	0.190567	-0.013868	0.190084	0.981670	-0.996131	-0.087829	0.002934
329	3893717													9.860983	-0.087849	0.791594	0.091683	-0.977412	0.190420	-0.013667	0.189972	0.981694	-0.995694	-0.092607	0.004059
330	3893884													9.790454	-0.061562	0.881588	0.096749	-0.976946	0.190305	-0.013319	0.189915	0.981710	-0.995220	-0.097514	0.005362
331	3894050													9.749039	-0.074387	0.948108	0.101759	-0.976461	0.190180	-0.012835	0.189868	0.981726	-0.994726	-0.102340	0.006788
332	3894217													9.704743	-0.014110	1.032609	0.106447	-0.975986	0.190053	-0.012334	0.189828	0.981740	-0.994242	-0.106848	0.008169
333	3894384													9.667960	0.049377	1.124713	0.110721	-0.975513	0.190041	-0.011757	0.189918	0.981730	-0.993782	-0.110932	0.009559
334	3894550													9.719605	0.012635	1.164058	0.114471	-0.975051	0.190190	-0.011280	0.190161	0.981688	-0.993363	-0.114521	0.010769
335	3894717													9.742613	0.001204	1.176507	0.117828	-0.974610	0.190398	-0.010971	0.190444	0.981637	-0.992973	-0.117753	0.011747
336	3894884													9.941476	0.033210	1.257410	0.121033	-0.974157	0.190706	-0.010879	0.190805	0.981568	-0.992589	-0.120877	0.012496
337	3895051													9.897063	-0.041657	1.336118	0.124381	-0.973658	0.191101	-0.010984	0.191233	0.981483	-0.992174	-0.124177	0.013091
338	3895217													9.889590	-0.110267	1.359096	0.127625	-0.973173	0.191432	-0.011282	0.191574	0.981413	-0.991758	-0.127413	0.013471
339	3895384													9.601560	-0.069024	1.388815	0.130655	-0.972714	0.191722	-0.011671	0.191857	0.981354	-0.991359	-0.130456	0.013714
340	3895551													9.591409	-0.083846	1.396120	0.132898	-0.972324	0.192157	-0.011926	0.192294	0.981265	-0.991058	-0.132700	0.013959
341	3895717													9.666593	-0.129788	1.409357	0.134658	-0.971985	0.192644	-0.011982	0.192803	0.981164	-0.990820	-0.134430	0.014317
342	3895884													9.787959	-0.166745	1.436961	0.136396	-0.971665	0.193039	-0.011879	0.193242	0.981079	-0.990583	-0.136108	0.014815
343	3896051													9.864296	-0.149680	1.475739	0.138217	-0.971341	0.193370	-0.011633	0.193638	0.981004	-0.990334	-0.137841	0.015464
344	3896217													9.894190	-0.109120	1.501474	0.140506	-0.970978	0.193544	-0.011274	0.193902	0.980956	-0.990016	-0.140012	0.016298
345	3896384													9.819916	-0.047316	1.533684	0.143132	-0.970588	0.193578	-0.010689	0.194065	0.980930	-0.989646	-0.142471	0.017402
346	3896551													9.706349	-0.029933	1.536346	0.145848	-0.970188	0.193557	-0.010031	0.194189	0.980913	-0.989256	-0.145005	0.018590
347	3896717													9.664393	-0.012999	1.550279	0.148306	-0.969831	0.193474	-0.009494	0.194233	0.980910	-0.988896	-0.147311	0.019599
348	3896884													9.705415	0.001196	1.536258	0.150626	-0.969511	0.193286	-0.009118	0.194146	0.980930	-0.988549	-0.149516	0.020403
349	3897051													9.797898	-0.002628	1.580506	0.152911	-0.969217	0.192969	-0.008967	0.193897	0.980981	-0.988199	-0.151733	0.020958
350	3897217													9.908114	-0.019903	1.601413	0.155389	-0.968916	0.192502	-0.008974	0.193476	0.981064	-0.987813	-0.154174	0.021368
351	3897384													9.847443	-0.033514	1.651658	0.158309	-0.968566	0.191883	-0.009117	0.192891	0.981178	-0.987348	-0.157079	0.021706
352	3897551													9.744627	-0.009309	1.660748	0.161123	-0.968246	0.191152	-0.009420	0.192165	0.981317	-0.986889	-0.159913	0.021841
353	3897717													9.677567	0.018458	1.671458	0.163787	-0.967945	0.190414	-0.009776	0.191418	0.981460	-0.986447	-0.162611	0.021889
354	3897884													9.644234	0.033026	1.674083	0.165986	-0.967681	0.189848	-0.010107	0.190839	0.981569	-0.986076	-0.164846	0.021896
355	3898051													9.729579	-0.002298	1.654408	0.167950	-0.967428	0.189411	-0.010434	0.190385	0.981654	-0.985740	-0.166845	0.021881
356	3898217													9.736814	-0.050770	1.671970	0.169839	-0.967176	0.189013	-0.010806	0.189960	0.981732	-0.985413	-0.168779	0.021812
357	3898384													9.824033	-0.060717	1.648575	0.171763	-0.966909	0.188639	-0.011209	0.189554	0.981806	-0.985075	-0.170752	0.021720
358	3898551													9.763863	-0.058311	1.642879	0.173843	-0.966608	0.188277	-0.011527	0.189178	0.981875	-0.984706	-0.172863	0.021745
359	3898717													9.757541	-0.051175	1.656161	0.175992	-0.966275	0.187989	-0.011710	0.188902	0.981926	-0.984322	-0.175013	0.021930
360	3898884													9.712980	-0.068709	1.688725	0.178024	-0.965953	0.187729	-0.011759	0.188675	0.981969	-0.983956	-0.177022	0.022230
361	3899051													9.710177	-0.070519	1.691942	0.179885	-0.965660	0.187463	-0.011783	0.188443	0.982013	-0.983617	-0.178858	0.022519
362	3899217													9.766518	-0.050114	1.691102	0.181626	-0.965378	0.187236	-0.011775	0.188255	0.982050	-0.983297	-0.180571	0.022825
363	3899384													9.736486	-0.022896	1.714593	0.183386	-0.965077	0.187072	-0.011648	0.188153	0.982071	-0.982972	-0.182277	0.023263
364	3899551													9.740153	-0.048009	1.744922	0.185116	-0.964770	0.186950	-0.011489	0.188100	0.982083	-0.982650	-0.183947	0.023736
365	3899717													9.733840	-0.021191	1.772028	0.186808	-0.964454	0.186900	-0.011304	0.188126	0.982080	-0.982331	-0.185573	0.024241
366	3899884													9.717388	-0.021114	1.780589	0.188482	-0.964130	0.186890	-0.011160	0.188186	0.982070	-0.982013	-0.187188	0.024710
367	3900051													9.697490	-0.027196	1.786096	0.190078	-0.963816	0.186894	-0.011029	0.188257	0.982058	-0.981707	-0.188729	0.025154
368	3900217													9.729560	-0.009656	1.798585	0.191689	-0.963492	0.186917	-0.010865	0.188354	0.982041	-0.981396	-0.190277	0.025637
369	3900384													9.750127	-0.025463	1.809043	0.193382	-0.963141	0.186983	-0.010713	0.188496	0.982016	-0.981065	-0.191907	0.026134
370	3900551													9.805008	-0.037552	1.835775	0.195329	-0.962737	0.187042	-0.010505	0.188650	0.981988	-0.980681	-0.193776	0.026735
371	3900717													9.751311	-0.067718	1.886224	0.197558	-0.962278	0.187059	-0.010326	0.188767	0.981968	-0.980237	-0.195927	0.027356
372	3900884													9.717455	-0.043002	1.918315	0.199908	-0.961806	0.186991	-0.010098	0.188810	0.981962	-0.979763	-0.198190	0.028032
373	3901051													9.676376	-0.014301	1.977845	0.202248	-0.961335	0.186896	-0.009792	0.188846	0.981958	-0.979285	-0.200429	0.028780
374	3901217													9.629005	-0.020618	2.010425	0.204411	-0.960899	0.186787	-0.009523	0.188855	0.981959	-0.978839	-0.202502	0.029453
375	3901384													9.626749	-0.010128	2.042691	0.206349	-0.960519	0.186609	-0.009385	0.188762	0.981978	-0.978433	-0.204382	0.029937
376	3901551													9.660681	-0.014376	2.084356	0.208128	-0.960185	0.186352	-0.009372	0.188557	0.982017	-0.978057	-0.206132	0.030245
377	3901717													9.687824	-0.042882	2.115070	0.209783	-0.959884	0.186046	-0.009483	0.188273	0.982071	-0.977702	-0.207786	0.030394
378	3901884													9.713618	-0.072222	2.116838	0.211433	-0.959615	0.185568	-0.009718	0.187786	0.982162	-0.977344	-0.209465	0.030378
379	3902051													9.649297	-0.007227	2.126152	0.212917	-0.959393	0.185019	-0.010026	0.187205	0.982270	-0.977019	-0.210997	0.030240
380	3902217													9.685535	-0.034245	2.130553	0.214368	-0.959162	0.184536	-0.010216	0.186716	0.982361	-0.976699	-0.212472	0.030227
381	3902384													9.711911	-0.139319	2.125590	0.215852	-0.958932	0.184004	-0.010433	0.186170	0.982462	-0.976370	-0.213987	0.030181
382	3902551													9.739206	-0.114641	2.135764	0.217554	-0.958689	0.183265	-0.010665	0.185417	0.982602	-0.975990	-0.215723	0.030114
383	3902717													9.730301	-0.104728	2.194428	0.219509	-0.958408	0.182402	-0.010791	0.184565	0.982761	-0.975551	-0.217693	0.030172
384	3902884													9.676656	-0.051600	2.207903	0.221717	-0.958073	0.181489	-0.010719	0.183715	0.982921	-0.975052	-0.219876	0.030463
385	3903051													9.603893	-0.046619	2.260522	0.223938	-0.957710	0.180673	-0.010463	0.183008	0.983056	-0.974547	-0.222034	0.030962
386	3903217													9.559090	-0.029753	2.282982	0.225961	-0.957366	0.179980	-0.010157	0.182433	0.983166	-0.974083	-0.223985	0.031499
387	3903384													9.579572	-0.042257	2.266367	0.227725	-0.957055	0.179408	-0.009944	0.181954	0.983257	-0.973675	-0.225696	0.031918
388	3903551													9.695086	-0.000274	2.255209	0.229382	-0.956740	0.178976	-0.009824	0.181594	0.983325	-0.973287	-0.227315	0.032255
389	3903717													9.716311	-0.015985	2.255246	0.231109	-0.956377	0.178692	-0.009751	0.181378	0.983365	-0.972879	-0.229007	0.032592
390	3903884													9.762307	0.007899	2.264026	0.233064	-0.955938	0.178503	-0.009657	0.181274	0.983385	-0.972413	-0.230916	0.033017
391	3904051													9.725518	-0.041229	2.239501	0.235254	-0.955408	0.178469	-0.009556	0.181340	0.983374	-0.971887	-0.233048	0.033531
392	3904217													9.726331	-0.056141	2.226411	0.237722	-0.954806	0.178422	-0.009512	0.181390	0.983365	-0.971287	-0.235465	0.034038
393	3904384													9.626454	-0.007712	2.248583	0.240241	-0.954175	0.178424	-0.009491	0.181490	0.983347	-0.970667	-0.237934	0.034545
394	3904551													9.649842	-0.040534	2.245223	0.242829	-0.953499	0.178532	-0.009454	0.181706	0.983307	-0.970023	-0.240463	0.035109
395	3904717													9.580495	-0.099938	2.254958	0.245483	-0.952814	0.178561	-0.009471	0.181831	0.983284	-0.969355	-0.243071	0.035612
396	3904884													9.623788	-0.081960	2.275404	0.248231	-0.952122	0.178453	-0.009441	0.181832	0.983284	-0.968655	-0.245767	0.036148
397	3905051													9.661962	-0.058282	2.341021	0.251149	-0.951384	0.178303	-0.009347	0.181815	0.983288	-0.967903	-0.248619	0.036770
398	3905217													9.614634	-0.085272	2.415948	0.254164	-0.950621	0.178101	-0.009189	0.181766	0.983299	-0.967118	-0.251555	0.037463
399	3905384													9.613523	-0.098579	2.495227	0.257033	-0.949902	0.177818	-0.008978	0.181645	0.983323	-0.966361	-0.254343	0.038161
400	3905551													9.591223	-0.094776	2.548263	0.259778	-0.949222	0.177462	-0.008754	0.181449	0.983361	-0.965629	-0.257009	0.038827
401	3905717													9.564439	-0.053545	2.587976	0.262327	-0.948602	0.177029	-0.008477	0.181181	0.983413	-0.964942	-0.259476	0.039487
402	3905884													9.574529	-0.042747	2.626436	0.264663	-0.948030	0.176615	-0.008136	0.180944	0.983460	-0.964307	-0.261722	0.040176
403	3906051													9.580706	-0.035225	2.631729	0.266892	-0.947490	0.176155	-0.007767	0.180665	0.983514	-0.963695	-0.263860	0.040859
404	3906217													9.585486	-0.025253	2.627135	0.269058	-0.946962	0.175699	-0.007467	0.180369	0.983571	-0.963095	-0.265950	0.041458
405	3906384													9.614521	0.010443	2.652679	0.271381	-0.946387	0.175224	-0.007185	0.180059	0.983630	-0.962445	-0.268198	0.042065
406	3906551													9.641594	-0.005427	2.687165	0.273978	-0.945727	0.174745	-0.006856	0.179772	0.983684	-0.961712	-0.270706	0.042770
407	3906717													9.687227	-0.029022	2.780610	0.276996	-0.944957	0.174154	-0.006429	0.179419	0.983752	-0.960850	-0.273615	0.043623
408	3906884													9.605682	0.089310	2.861578	0.280353	-0.944075	0.173565	-0.005795	0.179149	0.983805	-0.959880	-0.276818	0.044754
409	3907051													9.522844	0.121304	2.851194	0.283969	-0.943068	0.173159	-0.004734	0.179212	0.983799	-0.958822	-0.280188	0.046426
410	3907217													9.347525	-0.024244	2.820320	0.287539	-0.942037	0.172882	-0.003451	0.179485	0.983755	-0.957763	-0.283465	0.048358
411	3907384													9.339792	-0.109192	2.841889	0.290760	-0.941131	0.172429	-0.002295	0.179528	0.983750	-0.956793	-0.286431	0.050040
412	3907551													9.474097	-0.031292	2.932383	0.293761	-0.940329	0.171715	-0.001514	0.179183	0.983815	-0.955878	-0.289266	0.051214
413	3907717													9.497520	0.115491	3.029700	0.296692	-0.939547	0.170955	-0.000880	0.178747	0.983895	-0.954973	-0.292064	0.052206
414	3907884													9.475698	0.164458	3.122469	0.299447	-0.938775	0.170394	-0.000355	0.178479	0.983944	-0.954113	-0.294699	0.053111
415	3908051													9.436845	0.166114	3.133625	0.301926	-0.938050	0.170006	-0.000107	0.178295	0.983977	-0.953331	-0.297107	0.053731
416	3908217													9.342280	0.153257	3.129039	0.304017	-0.937417	0.169774	-0.000119	0.178172	0.983999	-0.952667	-0.299173	0.054056
417	3908384													9.284425	0.151969	3.119068	0.305454	-0.936964	0.169696	-0.000305	0.178117	0.984009	-0.952207	-0.300621	0.054121
418	3908551													9.480273	0.140710	3.122386	0.306602	-0.936557	0.169869	-0.000581	0.178280	0.983980	-0.951837	-0.301789	0.054117
419	3908717													9.430517	0.009313	3.110027	0.307686	-0.936156	0.170121	-0.000994	0.178478	0.983943	-0.951488	-0.302914	0.053984
420	3908884													9.530815	0.028309	3.115792	0.308876	-0.935722	0.170355	-0.001467	0.178645	0.983913	-0.951101	-0.304156	0.053806
421	3909051													9.504540	0.073640	3.124219	0.310367	-0.935174	0.170652	-0.001820	0.178932	0.983860	-0.950615	-0.305668	0.053833
422	3909217													9.452733	0.051107	3.123434	0.312155	-0.934499	0.171086	-0.001961	0.179450	0.983765	-0.950029	-0.307423	0.054183
423	3909384													9.367466	-0.013283	3.117731	0.313999	-0.933789	0.171586	-0.002085	0.180048	0.983656	-0.949421	-0.309225	0.054588
424	3909551													9.380998	-0.015616	3.120512	0.315716	-0.933117	0.172095	-0.002287	0.180623	0.983550	-0.948851	-0.310916	0.054892
425	3909717													9.415242	-0.009088	3.093077	0.317346	-0.932470	0.172602	-0.002532	0.181176	0.983447	-0.948307	-0.312530	0.055134
426	3909884													9.440928	-0.020695	3.083327	0.318952	-0.931821	0.173145	-0.002724	0.181785	0.983335	-0.947767	-0.314108	0.055443
427	3910051													9.476482	0.006008	3.090933	0.320687	-0.931123	0.173692	-0.002820	0.182438	0.983213	-0.947181	-0.315794	0.055880
428	3910217													9.509789	0.015685	3.070388	0.322666	-0.930309	0.174388	-0.002851	0.183287	0.983055	-0.946509	-0.317696	0.056488
429	3910384													9.450222	-0.030023	3.081486	0.324799	-0.929412	0.175212	-0.002969	0.184253	0.982874	-0.945778	-0.319757	0.057086
430	3910551													9.489772	-0.025659	3.043762	0.327048	-0.928463	0.176055	-0.003211	0.185207	0.982694	-0.945002	-0.321953	0.057590
431	3910717													9.408367	0.019622	3.071955	0.329321	-0.927488	0.176958	-0.003394	0.186248	0.982497	-0.944212	-0.324157	0.058187
432	3910884													9.407413	-0.064971	3.082756	0.331763	-0.926433	0.177921	-0.003582	0.187365	0.982284	-0.943356	-0.326523	0.058842
433	3911051													9.472713	-0.117221	3.110062	0.334370	-0.925342	0.178713	-0.003853	0.188284	0.982107	-0.942434	-0.329076	0.059391
434	3911217													9.439048	-0.054368	3.183972	0.337229	-0.924191	0.179297	-0.004206	0.188972	0.981973	-0.941413	-0.331904	0.059840
435	3911384													9.453502	0.025532	3.224465	0.340280	-0.922970	0.179820	-0.004640	0.189581	0.981854	-0.940313	-0.334940	0.060228
436	3911551													9.345544	0.012678	3.293276	0.343336	-0.921754	0.180247	-0.005179	0.190052	0.981760	-0.939198	-0.338008	0.060478
437	3911718													9.384796	0.042848	3.332584	0.346354	-0.920561	0.180573	-0.005891	0.190349	0.981699	-0.938085	-0.341079	0.060506
438	3911884													9.367705	0.053613	3.373068	0.349418	-0.919340	0.180889	-0.006662	0.190615	0.981642	-0.936943	-0.344208	0.060480
439	3912051													9.352778	-0.031418	3.427513	0.352340	-0.918149	0.181272	-0.007481	0.190924	0.981576	-0.935842	-0.347204	0.060401
440	3912218													9.336394	-0.087701	3.485229	0.355208	-0.917008	0.181450	-0.008297	0.191008	0.981553	-0.934750	-0.350161	0.060239
441	3912384													9.286016	-0.072110	3.543379	0.357788	-0.915970	0.181624	-0.008970	0.191119	0.981526	-0.933760	-0.352807	0.060164
442	3912551													9.254435	-0.106985	3.604240	0.359994	-0.915097	0.181665	-0.009508	0.191111	0.981522	-0.932906	-0.355069	0.060099
443	3912718													9.274415	-0.105876	3.659131	0.361792	-0.914394	0.181635	-0.009895	0.191055	0.981529	-0.932206	-0.356907	0.060074
444	3912884													9.250170	-0.134558	3.673142	0.363358	-0.913797	0.181512	-0.010194	0.190917	0.981553	-0.931594	-0.358505	0.060056
445	3913051													9.326844	-0.103849	3.677255	0.364782	-0.913277	0.181271	-0.010379	0.190686	0.981596	-0.931035	-0.359950	0.060080
446	3913218													9.285151	-0.040406	3.703068	0.366261	-0.912721	0.181086	-0.010482	0.190550	0.981622	-0.930453	-0.361428	0.060224
447	3913384													9.180868	-0.063402	3.736652	0.367642	-0.912179	0.181022	-0.010419	0.190602	0.981612	-0.929909	-0.362768	0.060570
448	3913551													9.169142	-0.113741	3.792325	0.368772	-0.911725	0.181010	-0.010322	0.190707	0.981593	-0.929463	-0.363852	0.060917
449	3913718													9.165311	-0.080361	3.830020	0.369699	-0.911361	0.180955	-0.010193	0.190763	0.981583	-0.929096	-0.364735	0.061235
450	3913884													9.151516	-0.073818	3.878362	0.370253	-0.911140	0.180931	-0.010012	0.190848	0.981568	-0.928877	-0.365240	0.061540
451	3914051													9.165915	-0.022722	3.885834	0.370579	-0.911001	0.180966	-0.009803	0.190991	0.981543	-0.928749	-0.365513	0.061847
452	3914218													9.109540	0.009283	3.865275	0.370403	-0.911033	0.181164	-0.009625	0.191262	0.981492	-0.928821	-0.365291	0.062075
453	3914384													9.262892	-0.094708	3.826840	0.370021	-0.911130	0.181459	-0.009535	0.191587	0.981429	-0.928975	-0.364879	0.062204
454	3914551													9.192486	-0.045564	3.788741	0.369455	-0.911314	0.181685	-0.009513	0.191799	0.981388	-0.929200	-0.364307	0.062191
455	3914718													9.298110	-0.030721	3.770639	0.368853	-0.911505	0.181952	-0.009376	0.192096	0.981331	-0.929441	-0.363673	0.062309
456	3914884													9.228289	-0.098173	3.715231	0.368270	-0.911675	0.182278	-0.009147	0.192494	0.981256	-0.929674	-0.363034	0.062550
457	3915051													9.246738	-0.159467	3.697146	0.367618	-0.911917	0.182386	-0.008862	0.192675	0.981223	-0.929935	-0.362331	0.062749
458	3915218													9.306891	-0.073283	3.686411	0.367192	-0.912104	0.182311	-0.008470	0.192715	0.981218	-0.930107	-0.361839	0.063038
459	3915384													9.281349	0.002799	3.703644	0.367014	-0.912190	0.182235	-0.007910	0.192838	0.981199	-0.930182	-0.361555	0.063559
460	3915551													9.244984	0.032128	3.747026	0.366992	-0.912199	0.182236	-0.007309	0.193072	0.981157	-0.930195	-0.361409	0.064189
461	3915718													9.197821	0.016609	3.736758	0.366901	-0.912223	0.182298	-0.006777	0.193338	0.981109	-0.930235	-0.361205	0.064754
462	3915884													9.173185	0.057974	3.746436	0.366461	-0.912366	0.182471	-0.006386	0.193643	0.981051	-0.930412	-0.360682	0.065136
463	3916051													9.233017	0.042128	3.721273	0.365746	-0.912593	0.182767	-0.006184	0.193986	0.980985	-0.930694	-0.359922	0.065306
464	3916218													9.309193	0.055986	3.691080	0.364943	-0.912843	0.183125	-0.006098	0.194343	0.980915	-0.931010	-0.359095	0.065357
465	3916384													9.354968	0.032111	3.676545	0.364265	-0.913022	0.183579	-0.006065	0.194793	0.980826	-0.931276	-0.358394	0.065419
466	3916551													9.330936	-0.024908	3.598739	0.363699	-0.913170	0.183968	-0.006019	0.195185	0.980748	-0.931497	-0.357804	0.065492
467	3916718													9.347328	-0.100841	3.542798	0.363146	-0.913351	0.184161	-0.006022	0.195350	0.980715	-0.931713	-0.357252	0.065440
468	3916884													9.279164	-0.044959	3.485427	0.362646	-0.913557	0.184123	-0.005986	0.195284	0.980728	-0.931908	-0.356759	0.065350
469	3917051													9.257915	-0.048739	3.452837	0.362039	-0.913820	0.184015	-0.005854	0.195174	0.980751	-0.932145	-0.356147	0.065311
470	3917218													9.324788	-0.034337	3.464243	0.361322	-0.914146	0.183804	-0.005651	0.194971	0.980793	-0.932424	-0.355420	0.065282
471	3917384													9.335985	0.010470	3.490520	0.360797	-0.914403	0.183558	-0.005422	0.194755	0.980837	-0.932629	-0.354878	0.065309
472	3917551													9.342424	0.019411	3.443592	0.360372	-0.914605	0.183385	-0.005256	0.194601	0.980868	-0.932794	-0.354442	0.065322
473	3917718													9.326604	0.025914	3.449016	0.360132	-0.914727	0.183249	-0.005171	0.194469	0.980895	-0.932887	-0.354200	0.065304
474	3917884													9.301354	0.070938	3.427838	0.360074	-0.914746	0.183263	-0.005188	0.194473	0.980894	-0.932909	-0.354145	0.065279
475	3918051													9.360053	0.044060	3.416052	0.360088	-0.914702	0.183458	-0.005223	0.194670	0.980855	-0.932904	-0.354152	0.065320
476	3918218													9.378483	-0.020235	3.442750	0.360347	-0.914540	0.183757	-0.005255	0.194998	0.980790	-0.932803	-0.354390	0.065461
477	3918384													9.388493	-0.021606	3.442161	0.360694	-0.914345	0.184049	-0.005242	0.195342	0.980721	-0.932670	-0.354705	0.065666
478	3918551													9.384518	-0.034869	3.495079	0.361257	-0.914061	0.184351	-0.005157	0.195741	0.980642	-0.932452	-0.355215	0.065999
479	3918718													9.374895	-0.081541	3.504927	0.361995	-0.913723	0.184581	-0.004994	0.196106	0.980570	-0.932167	-0.355883	0.066426
480	3918884													9.310569	-0.067700	3.554254	0.362870	-0.913364	0.184640	-0.004704	0.196348	0.980523	-0.931828	-0.356671	0.066952
481	3919051													9.379912	-0.064298	3.541964	0.363774	-0.913021	0.184557	-0.004264	0.196497	0.980495	-0.931478	-0.357465	0.067588
482	3919218													9.452929	-0.159101	3.574509	0.365077	-0.912585	0.184140	-0.003577	0.196415	0.980514	-0.930971	-0.358622	0.068442
483	3919384													9.262241	-0.124400	3.591628	0.366675	-0.912137	0.183182	-0.002630	0.195879	0.980625	-0.930345	-0.360052	0.069425
484	3919551													9.144318	-0.061321	3.587886	0.368100	-0.911827	0.181863	-0.001465	0.195028	0.980797	-0.929785	-0.361298	0.070454
485	3919718													9.115029	0.018778	3.566154	0.369237	-0.911647	0.180453	-0.000228	0.194085	0.980985	-0.929335	-0.362257	0.071456
486	3919884													9.217496	0.112693	3.604308	0.370032	-0.911610	0.179004	0.000876	0.193023	0.981194	-0.929018	-0.362917	0.072223
487	3920051													9.320278	0.217991	3.656310	0.370808	-0.911515	0.177881	0.001742	0.192218	0.981351	-0.928708	-0.363583	0.072864
488	3920218													9.268671	0.272425	3.686183	0.371764	-0.911256	0.177214	0.002316	0.191805	0.981430	-0.928324	-0.364450	0.073417
489	3920384													9.275894	0.176475	3.685304	0.372645	-0.910939	0.176990	0.002446	0.191691	0.981452	-0.927971	-0.365300	0.073661
490	3920551													9.289407	0.154704	3.659595	0.373538	-0.910565	0.177031	0.002197	0.191713	0.981448	-0.927612	-0.366220	0.073613
491	3920718													9.134924	0.092577	3.741864	0.374193	-0.910251	0.177266	0.001895	0.191903	0.981412	-0.927349	-0.366902	0.073534
492	3920884													9.256956	0.018175	3.768268	0.374733	-0.909951	0.177666	0.001831	0.192356	0.981324	-0.927131	-0.367409	0.073748
493	3921051													9.299340	-0.051690	3.718458	0.375206	-0.909689	0.178007	0.001894	0.192788	0.981239	-0.926940	-0.367829	0.074058
494	3921218													9.181646	-0.039140	3.770387	0.375695	-0.909449	0.178200	0.002054	0.193103	0.981176	-0.926741	-0.368257	0.074416
495	3921384													9.286272	0.001876	3.775224	0.376308	-0.909189	0.178233	0.002316	0.193296	0.981138	-0.926492	-0.368797	0.074845
496	3921551													9.158218	0.088846	3.806611	0.377087	-0.908876	0.178185	0.002796	0.193504	0.981096	-0.926173	-0.369461	0.075509
497	3921718													9.233376	0.092517	3.828768	0.377818	-0.908570	0.178197	0.003304	0.193784	0.981039	-0.925874	-0.370066	0.076217
498	3921884													9.157458	0.112275	3.849671	0.378594	-0.908252	0.178170	0.003711	0.193987	0.980997	-0.925555	-0.370739	0.076813
499	3922051													9.080373	0.095992	3.857978	0.378968	-0.908091	0.178197	0.003958	0.194149	0.980964	-0.925401	-0.371049	0.077171
500	3922218													9.180124	0.088558	3.849741	0.378926	-0.908102	0.178232	0.004011	0.194204	0.980953	-0.925418	-0.370994	0.077231
501	3922384													9.228318	0.169674	3.864429	0.378707	-0.908190	0.178245	0.003977	0.194185	0.980957	-0.925508	-0.370786	0.077151
502	3922551													9.152166	0.152153	3.853234	0.378292	-0.908326	0.178436	0.003853	0.194304	0.980934	-0.925678	-0.370392	0.077004
503	3922718													9.178412	0.065676	3.783098	0.377617	-0.908566	0.178640	0.003553	0.194345	0.980927	-0.925955	-0.369780	0.076616
504	3922884													9.128887	0.069279	3.735693	0.376672	-0.908913	0.178871	0.003203	0.194370	0.980923	-0.926341	-0.368913	0.076125
505	3923051													9.159022	0.074427	3.734806	0.375179	-0.909457	0.179247	0.002859	0.194507	0.980897	-0.926948	-0.367499	0.075575
506	3923218													9.316919	0.066635	3.710598	0.373654	-0.909996	0.179694	0.002603	0.194754	0.980849	-0.927565	-0.366030	0.075139
507	3923384													9.257196	0.071543	3.717407	0.372286	-0.910460	0.180183	0.002426	0.195092	0.980782	-0.928115	-0.364694	0.074839
508	3923551													9.299191	0.008100	3.708344	0.370881	-0.910914	0.180782	0.002336	0.195581	0.980685	-0.928677	-0.363295	0.074666
509	3923718													9.353637	0.011750	3.720371	0.369764	-0.911263	0.181315	0.002422	0.196091	0.980583	-0.929123	-0.362145	0.074714
510	3923884													9.287045	-0.003481	3.715261	0.368792	-0.911555	0.181821	0.002667	0.196646	0.980471	-0.929508	-0.361105	0.074953
511	3924051													9.385132	0.063538	3.704665	0.368004	-0.911772	0.182329	0.003060	0.197277	0.980343	-0.929819	-0.360213	0.075389
512	3924218													9.283156	0.051202	3.671679	0.367429	-0.911897	0.182864	0.003481	0.197964	0.980203	-0.930045	-0.359518	0.075913
513	3924384													9.302140	0.031304	3.645989	0.366835	-0.912039	0.183347	0.003802	0.198555	0.980082	-0.930278	-0.358832	0.076304
514	3924551													9.272635	0.062752	3.621672	0.366257	-0.912200	0.183701	0.004076	0.198990	0.979993	-0.930505	-0.358181	0.076599
515	3924718													9.216015	0.037320	3.599027	0.365674	-0.912385	0.183948	0.004421	0.199336	0.979921	-0.930732	-0.357519	0.076925
516	3924884													9.129107	0.039836	3.519419	0.364881	-0.912693	0.183992	0.004848	0.199476	0.979891	-0.931041	-0.356652	0.077210
517	3925051													9.234415	0.063645	3.544427	0.363789	-0.913141	0.183930	0.005277	0.199477	0.979888	-0.931466	-0.355502	0.077386
518	3925218													9.314450	0.051782	3.499101	0.362724	-0.913611	0.183701	0.005610	0.199263	0.979930	-0.931880	-0.354413	0.077403
519	3925384													9.261292	0.146719	3.525230	0.361729	-0.914060	0.183429	0.005958	0.199015	0.979978	-0.932264	-0.353394	0.077436
520	3925551													9.236927	0.153399	3.499179	0.360756	-0.914456	0.183373	0.006221	0.198967	0.979986	-0.932639	-0.352396	0.077467
521	3925718													9.290650	0.106471	3.528737	0.359673	-0.914871	0.183429	0.006358	0.198983	0.979982	-0.933057	-0.351307	0.077386
522	3925884													9.378740	0.135520	3.538680	0.358767	-0.915202	0.183552	0.006351	0.199032	0.979972	-0.933405	-0.350416	0.077219
523	3926051													9.366855	0.113842	3.555839	0.357910	-0.915487	0.183804	0.006312	0.199212	0.979936	-0.933735	-0.349568	0.077079
524	3926218													9.312945	0.079697	3.560086	0.357129	-0.915732	0.184104	0.006269	0.199447	0.979889	-0.934034	-0.348793	0.076969
525	3926384													9.301406	0.064996	3.580400	0.356159	-0.916056	0.184370	0.006133	0.199595	0.979859	-0.934405	-0.347855	0.076705
526	3926551													9.274353	0.056119	3.578562	0.355009	-0.916457	0.184592	0.005960	0.199669	0.979845	-0.934844	-0.346754	0.076346
527	3926718													9.223818	0.065336	3.594322	0.353543	-0.916976	0.184832	0.005846	0.199755	0.979828	-0.935400	-0.345331	0.075983
528	3926884													9.374260	0.049372	3.578846	0.351996	-0.917526	0.185052	0.005946	0.199893	0.979800	-0.935983	-0.343785	0.075817
529	3927051													9.302250	-0.010290	3.562733	0.350285	-0.918154	0.185188	0.006127	0.199957	0.979786	-0.936623	-0.342069	0.075668
530	3927218													9.286813	0.022314	3.529310	0.348466	-0.918865	0.185094	0.006367	0.199787	0.979819	-0.937300	-0.340254	0.075470
531	3927384													9.335246	0.099028	3.506392	0.346660	-0.919562	0.185021	0.006731	0.199686	0.979837	-0.937967	-0.338425	0.075413
532	3927551													9.341191	0.082278	3.490178	0.344983	-0.920206	0.184954	0.007247	0.199657	0.979839	-0.938581	-0.336687	0.075547
533	3927718													9.293853	0.091937	3.436317	0.343344	-0.920836	0.184867	0.007748	0.199603	0.979846	-0.939178	-0.334992	0.075668
534	3927884													9.277620	0.115261	3.428863	0.341705	-0.921464	0.184774	0.008256	0.199544	0.979854	-0.939771	-0.333295	0.075792
535	3928051													9.341758	0.128365	3.423184	0.339925	-0.922135	0.184710	0.008672	0.199471	0.979865	-0.940412	-0.331479	0.075802
536	3928218													9.368745	0.141536	3.429615	0.338204	-0.922774	0.184681	0.009028	0.199418	0.979873	-0.941030	-0.329729	0.075775
537	3928385													9.335135	0.153213	3.395040	0.336577	-0.923371	0.184665	0.009359	0.199377	0.979878	-0.941609	-0.328076	0.075748
538	3928551													9.266080	0.190586	3.374083	0.334675	-0.924035	0.184804	0.009709	0.199484	0.979853	-0.942284	-0.326138	0.075733
539	3928718													9.305933	0.115534	3.308814	0.332431	-0.924801	0.185021	0.009916	0.199594	0.979828	-0.943076	-0.323891	0.075521
540	3928885													9.353306	0.142126	3.303155	0.329974	-0.925632	0.185261	0.010051	0.199687	0.979808	-0.943937	-0.321449	0.075195
541	3929051													9.323913	0.166847	3.279414	0.327206	-0.926528	0.185693	0.010270	0.199985	0.979745	-0.944897	-0.318672	0.074951
542	3929218													9.501051	0.136678	3.222881	0.324464	-0.927391	0.186196	0.010502	0.200365	0.979665	-0.945840	-0.315911	0.074751
543	3929385													9.327742	0.102423	3.173929	0.321721	-0.928242	0.186714	0.010702	0.200751	0.979584	-0.946774	-0.313155	0.074520
544	3929551													9.323843	0.147259	3.157490	0.318692	-0.929169	0.187297	0.010922	0.201188	0.979492	-0.947795	-0.310110	0.074266
545	3929718													9.338007	0.118947	3.128236	0.315422	-0.930155	0.187938	0.011106	0.201653	0.979394	-0.948886	-0.306835	0.073936
546	3929885													9.755374	0.123451	3.155232	0.312167	-0.931128	0.188553	0.011299	0.202096	0.979300	-0.949960	-0.303575	0.073609
547	3930051													9.763106	0.107406	3.137149	0.309935	-0.931779	0.189017	0.011536	0.202477	0.979219	-0.950688	-0.301314	0.073504
548	3930218													9.579230	0.089692	3.038352	0.308239	-0.932287	0.189285	0.011730	0.202682	0.979174	-0.951237	-0.299600	0.073410
549	3930385													9.556216	0.086662	2.978743	0.306874	-0.932719	0.189375	0.012001	0.202752	0.979157	-0.951675	-0.298205	0.073413
550	3930551													9.436707	0.079530	2.942328	0.305783	-0.933110	0.189216	0.012331	0.202600	0.979184	-0.952021	-0.297085	0.073457
551	3930718													9.365695	0.134453	2.912622	0.304531	-0.933583	0.188901	0.012687	0.202279	0.979246	-0.952418	-0.295814	0.073445
552	3930885													9.416334	0.171791	2.878680	0.303088	-0.934117	0.188581	0.013057	0.201941	0.979311	-0.952873	-0.294355	0.073403
553	3931051													9.447860	0.193109	2.899185	0.301587	-0.934661	0.188292	0.013393	0.201621	0.979372	-0.953345	-0.292844	0.073324
554	3931218													9.449373	0.230511	2.889543	0.300015	-0.935203	0.188115	0.013590	0.201369	0.979421	-0.953838	-0.291284	0.073123
555	3931385													9.491446	0.204433	2.891501	0.298500	-0.935690	0.188101	0.013663	0.201256	0.979443	-0.954312	-0.289794	0.072860
556	3931551													9.528509	0.208183	2.875337	0.297145	-0.936111	0.188154	0.013634	0.201194	0.979457	-0.954735	-0.288476	0.072547
557	3931718													9.503310	0.190831	2.881306	0.295945	-0.936458	0.188314	0.013534	0.201236	0.979449	-0.955109	-0.287315	0.072229
558	3931885													9.488384	0.190263	2.893091	0.294797	-0.936769	0.188569	0.013458	0.201390	0.979419	-0.955465	-0.286192	0.071977
559	3932051													9.455359	0.177571	2.895447	0.293622	-0.937056	0.188978	0.013369	0.201698	0.979356	-0.955828	-0.285034	0.071750
560	3932218													9.496075	0.117226	2.859363	0.292341	-0.937360	0.189452	0.013175	0.202035	0.979290	-0.956223	-0.283791	0.071413
561	3932385													9.424591	0.130651	2.878556	0.290909	-0.937721	0.189874	0.012974	0.202305	0.979237	-0.956663	-0.282405	0.071018
562	3932551													9.485708	0.180304	2.892471	0.289182	-0.938141	0.190433	0.012908	0.202736	0.979148	-0.957187	-0.280694	0.070737
563	3932718													9.500105	0.105009	2.858587	0.287391	-0.938543	0.191161	0.013010	0.203387	0.979012	-0.957725	-0.278873	0.070663
564	3932885													9.513088	0.041597	2.890480	0.285377	-0.939017	0.191850	0.013158	0.203994	0.978884	-0.958325	-0.276827	0.070571
565	3933051													9.596836	0.112405	2.890428	0.283450	-0.939493	0.192378	0.013379	0.204460	0.978783	-0.958894	-0.274863	0.070524
566	3933218													9.494355	0.151661	2.890557	0.281624	-0.939930	0.192924	0.013733	0.204990	0.978668	-0.959426	-0.272967	0.070638
567	3933385													9.587224	0.148681	2.889631	0.279770	-0.940363	0.193512	0.014164	0.205582	0.978537	-0.959963	-0.271024	0.070835
568	3933551													9.619043	0.136674	2.868825	0.278246	-0.940711	0.194015	0.014619	0.206116	0.978418	-0.960399	-0.269405	0.071103
569	3933718													9.505430	0.151238	2.860188	0.276843	-0.941033	0.194459	0.015019	0.206581	0.978314	-0.960798	-0.267919	0.071324
570	3933885													9.580595	0.172841	2.834059	0.275440	-0.941361	0.194865	0.015365	0.206991	0.978222	-0.961196	-0.266447	0.071477
571	3934051													9.541695	0.168436	2.790049	0.274321	-0.941627	0.195157	0.015708	0.207303	0.978151	-0.961510	-0.265262	0.071659
572	3934218													9.403023	0.216440	2.749574	0.273137	-0.941916	0.195425	0.016019	0.207575	0.978088	-0.961842	-0.264021	0.071785
573	3934385													9.445868	0.173172	2.734028	0.271606	-0.942304	0.195688	0.016258	0.207795	0.978037	-0.962271	-0.262459	0.071758
574	3934551													9.561642	0.142158	2.738298	0.269812	-0.942798	0.195788	0.016383	0.207794	0.978035	-0.962774	-0.260678	0.071511
575	3934718													9.520277	0.205674	2.733422	0.267914	-0.943349	0.195744	0.016538	0.207644	0.978065	-0.963301	-0.258800	0.071232
576	3934885													9.526658	0.209552	2.718958	0.265771	-0.943956	0.195735	0.016811	0.207544	0.978081	-0.963890	-0.256655	0.071028
577	3935051													9.508286	0.180360	2.667538	0.263357	-0.944640	0.195700	0.017037	0.207384	0.978111	-0.964548	-0.254258	0.070710
578	3935218													9.538745	0.219723	2.639544	0.260735	-0.945366	0.195705	0.017171	0.207226	0.978142	-0.965258	-0.251676	0.070264
579	3935385													9.531884	0.228307	2.597838	0.257937	-0.946121	0.195764	0.017240	0.207095	0.978169	-0.966008	-0.248931	0.069729
580	3935551													9.543536	0.229563	2.554132	0.254959	-0.946888	0.195954	0.017294	0.207084	0.978170	-0.966797	-0.246005	0.069173
581	3935718													9.570782	0.239631	2.538416	0.251849	-0.947660	0.196248	0.017278	0.207155	0.978156	-0.967612	-0.242956	0.068545
582	3935885													9.582410	0.241199	2.523911	0.248636	-0.948416	0.196689	0.017228	0.207364	0.978112	-0.968444	-0.239805	0.067898
583	3936051													9.531442	0.228111	2.499888	0.245166	-0.949207	0.197229	0.017179	0.207659	0.978050	-0.969329	-0.236397	0.067217
584	3936218													9.637613	0.189082	2.462188	0.241514	-0.950015	0.197844	0.017148	0.208026	0.977973	-0.970246	-0.232801	0.066532
585	3936385													9.627800	0.171924	2.391931	0.237890	-0.950808	0.198427	0.017163	0.208375	0.977899	-0.971140	-0.229226	0.065889
586	3936551													9.661213	0.176427	2.364353	0.234289	-0.951592	0.198950	0.017243	0.208681	0.977832	-0.972014	-0.225665	0.065300
587	3936718													9.583476	0.160274	2.312914	0.230714	-0.952368	0.199416	0.017362	0.208942	0.977774	-0.972867	-0.222124	0.064740
588	3936885													9.506862	0.150743	2.255292	0.226859	-0.953201	0.199859	0.017500	0.209165	0.977724	-0.973770	-0.218307	0.064132
589	3937051													9.588737	0.159262	2.240565	0.222657	-0.954108	0.200253	0.017677	0.209327	0.977686	-0.974737	-0.214149	0.063474
590	3937218													9.775021	0.178005	2.208202	0.218628	-0.954964	0.200611	0.017965	0.209489	0.977646	-0.975643	-0.210137	0.062956
591	3937385													9.828075	0.140793	2.128363	0.215051	-0.955744	0.200764	0.018342	0.209490	0.977639	-0.976431	-0.206560	0.062581
592	3937551													9.729483	0.156083	2.106740	0.211953	-0.956450	0.200695	0.018778	0.209308	0.977669	-0.977099	-0.203452	0.062324
593	3937718													9.736012	0.164637	2.041479	0.209043	-0.957143	0.200444	0.019247	0.208960	0.977735	-0.977717	-0.200531	0.062104
594	3937885													9.704299	0.214889	2.039478	0.206435	-0.957796	0.200029	0.019671	0.208454	0.977834	-0.978263	-0.197924	0.061873
595	3938051													9.717842	0.175998	1.993465	0.203857	-0.958468	0.199453	0.019939	0.207754	0.977978	-0.978798	-0.195391	0.061463
596	3938218													9.573088	0.202146	1.958233	0.201202	-0.959191	0.198672	0.020003	0.206801	0.978179	-0.979346	-0.192837	0.060795
597	3938385													9.538816	0.250179	1.970882	0.198025	-0.960010	0.197904	0.020050	0.205827	0.978383	-0.979992	-0.189776	0.060007
598	3938551													9.684620	0.292807	1.922161	0.194611	-0.960836	0.197282	0.020202	0.205011	0.978551	-0.980673	-0.186451	0.059308
599	3938718													9.713340	0.220209	1.910649	0.191151	-0.961637	0.196761	0.020356	0.204298	0.978697	-0.981350	-0.183074	0.058627
600	3938885													9.644183	0.252863	1.918309	0.187521	-0.962452	0.196269	0.020400	0.203586	0.978844	-0.982049	-0.179550	0.057811
601	3939051													9.715439	0.278141	1.893950	0.183824	-0.963239	0.195907	0.020468	0.203011	0.978962	-0.982746	-0.175946	0.057034
602	3939218													9.745738	0.301269	1.849150	0.180174	-0.963977	0.195669	0.020580	0.202575	0.979050	-0.983420	-0.172372	0.056337
603	3939385													9.735065	0.278753	1.850940	0.176583	-0.964656	0.195597	0.020707	0.202317	0.979101	-0.984068	-0.168842	0.055700
604	3939551													9.726536	0.280637	1.801833	0.172995	-0.965298	0.195633	0.020745	0.202155	0.979134	-0.984704	-0.165326	0.054997
605	3939718													9.650677	0.284281	1.798353	0.169240	-0.965915	0.195873	0.020682	0.202176	0.979131	-0.985358	-0.161657	0.054193
606	3939885													9.660839	0.271172	1.750105	0.165246	-0.966532	0.196238	0.020611	0.202314	0.979104	-0.986037	-0.157748	0.053353
607	3940051													9.721189	0.239553	1.704059	0.161073	-0.967143	0.196698	0.020547	0.202543	0.979058	-0.986729	-0.153658	0.052496
608	3940218													9.795076	0.209504	1.660608	0.156876	-0.967727	0.197215	0.020540	0.202841	0.978996	-0.987405	-0.149530	0.051698
609	3940385													9.861346	0.147525	1.612602	0.152797	-0.968300	0.197605	0.020534	0.203020	0.978959	-0.988044	-0.145524	0.050904
610	3940551													9.733554	0.192234	1.578265	0.148841	-0.968867	0.197847	0.020525	0.203060	0.978951	-0.988648	-0.141648	0.050110
611	3940718													9.673629	0.221591	1.525301	0.144605	-0.969455	0.198108	0.020677	0.203130	0.978933	-0.989273	-0.137462	0.049419
612	3940885													9.674414	0.203538	1.470986	0.140096	-0.970054	0.198413	0.020920	0.203245	0.978904	-0.989917	-0.132990	0.048768
613	3941051													9.700979	0.201322	1.408648	0.135305	-0.970680	0.198679	0.021116	0.203302	0.978888	-0.990579	-0.128254	0.048005
614	3941218													9.739418	0.241137	1.362045	0.130417	-0.971308	0.198876	0.021246	0.203281	0.978890	-0.991232	-0.123438	0.047147
615	3941385													9.770724	0.252676	1.296731	0.125400	-0.971920	0.199115	0.021320	0.203292	0.978886	-0.991877	-0.118507	0.046214
616	3941551													9.797664	0.244646	1.227074	0.120388	-0.972496	0.199397	0.021301	0.203342	0.978876	-0.992498	-0.113598	0.045195
617	3941718													9.780238	0.240406	1.209790	0.115310	-0.973039	0.199745	0.021263	0.203459	0.978853	-0.993102	-0.108624	0.044151
618	3941885													9.761362	0.220733	1.136954	0.110178	-0.973555	0.200126	0.021162	0.203604	0.978825	-0.993687	-0.103610	0.043035
619	3942051													9.773817	0.213258	1.078022	0.104960	-0.974062	0.200464	0.021018	0.203705	0.978807	-0.994254	-0.098522	0.041854
620	3942218													9.795705	0.200415	1.019711	0.099657	-0.974548	0.200811	0.020818	0.203813	0.978788	-0.994804	-0.093362	0.040600
621	3942385													9.840401	0.217175	0.958593	0.094357	-0.975000	0.201178	0.020662	0.203954	0.978762	-0.995324	-0.088197	0.039390
622	3942551													9.839796	0.174509	0.896520	0.089116	-0.975411	0.201575	0.020540	0.204136	0.978727	-0.995809	-0.083080	0.038227
623	3942718													9.826394	0.163368	0.854531	0.083906	-0.975802	0.201918	0.020410	0.204273	0.978701	-0.996265	-0.077997	0.037055
624	3942885													9.803266	0.179641	0.794128	0.078753	-0.976171	0.202208	0.020291	0.204366	0.978684	-0.996688	-0.072971	0.035902
625	3943051													9.799860	0.196138	0.736556	0.073557	-0.976514	0.202510	0.020189	0.204476	0.978663	-0.997087	-0.067899	0.034756
626	3943218													9.806673	0.188816	0.683121	0.068303	-0.976830	0.202823	0.020111	0.204604	0.978638	-0.997462	-0.062765	0.033621
627	3943385													9.882395	0.169584	0.643569	0.063153	-0.977115	0.203121	0.020111	0.204732	0.978611	-0.997801	-0.057717	0.032580
628	3943551													9.931931	0.185249	0.575164	0.058248	-0.977367	0.203372	0.020084	0.204824	0.978593	-0.998100	-0.052916	0.031560
629	3943718													9.875940	0.197236	0.540564	0.053563	-0.977589	0.203594	0.020022	0.204897	0.978579	-0.998364	-0.048339	0.030548
630	3943885													9.826958	0.193052	0.502285	0.048989	-0.977779	0.203834	0.019974	0.204997	0.978559	-0.998600	-0.043867	0.029573
631	3944051													9.857555	0.164846	0.402974	0.044402	-0.977961	0.204012	0.019849	0.205036	0.978553	-0.998817	-0.039400	0.028515
632	3944218													9.771405	0.153506	0.364188	0.039948	-0.978135	0.204097	0.019607	0.204988	0.978568	-0.999009	-0.035090	0.027368
633	3944385													9.810852	0.179532	0.325965	0.035355	-0.978293	0.204187	0.019411	0.204949	0.978580	-0.999186	-0.030635	0.026236
634	3944551													9.904764	0.166972	0.308515	0.030945	-0.978429	0.204253	0.019245	0.204896	0.978595	-0.999336	-0.026352	0.025170
635	3944718													9.863820	0.146449	0.279657	0.026698	-0.978537	0.204333	0.019141	0.204869	0.978602	-0.999460	-0.022215	0.024200
636	3944885													9.868206	0.169932	0.254973	0.022508	-0.978644	0.204325	0.019160	0.204762	0.978624	-0.999563	-0.018112	0.023359
637	3945052													9.868867	0.178794	0.234266	0.018550	-0.978732	0.204302	0.019258	0.204649	0.978646	-0.999642	-0.014220	0.022645
638	3945218													9.891031	0.211239	0.190085	0.014757	-0.978791	0.204329	0.019518	0.204594	0.978652	-0.999701	-0.010454	0.022124
639	3945385													9.825173	0.219376	0.177790	0.011115	-0.978818	0.204429	0.019859	0.204618	0.978640	-0.999741	-0.006818	0.021712
640	3945552													9.774838	0.240518	0.147204	0.007396	-0.978816	0.204607	0.020177	0.204717	0.978613	-0.999769	-0.003109	0.021264
641	3945718													9.788507	0.238006	0.124395	0.003566	-0.978792	0.204826	0.020433	0.204856	0.978579	-0.999785	0.000696	0.020730
642	3945885													9.846980	0.238735	0.073361	-0.000385	-0.978738	0.205115	0.020612	0.205064	0.978532	-0.999787	0.004605	0.020095
643	3946052													9.905581	0.257714	0.059811	-0.004279	-0.978655	0.205465	0.020710	0.205336	0.978472	-0.999776	0.008442	0.019390
644	3946218													9.930489	0.215639	0.061753	-0.008061	-0.978547	0.205868	0.020755	0.205666	0.978402	-0.999752	0.012160	0.018652
645	3946385													9.940185	0.192569	0.015739	-0.011650	-0.978431	0.206247	0.020653	0.205981	0.978338	-0.999719	0.015657	0.017808
646	3946552													9.817507	0.235743	-0.021029	-0.015157	-0.978307	0.206605	0.020487	0.206281	0.978278	-0.999675	0.019061	0.016916
647	3946718													9.722700	0.233785	-0.075685	-0.018795	-0.978150	0.207051	0.020359	0.206671	0.978199	-0.999616	0.022601	0.016030
648	3946885													9.726211	0.223373	-0.139971	-0.022672	-0.977952	0.207595	0.020308	0.207155	0.978097	-0.999537	0.026391	0.015163
649	3947052													9.737950	0.187197	-0.189844	-0.026651	-0.977742	0.208111	0.020248	0.207614	0.978001	-0.999440	0.030279	0.014265
650	3947218													9.720035	0.197310	-0.241690	-0.030772	-0.977519	0.208589	0.020228	0.208036	0.977912	-0.999322	0.034312	0.013372
651	3947385													9.778440	0.191581	-0.306755	-0.034959	-0.977282	0.209039	0.020207	0.208433	0.977828	-0.999184	0.038408	0.012462
652	3947552													9.789999	0.201508	-0.373447	-0.039220	-0.977031	0.209458	0.020247	0.208799	0.977749	-0.999025	0.042589	0.011593
653	3947718													9.825967	0.201645	-0.445908	-0.043453	-0.976762	0.209874	0.020358	0.209163	0.977669	-0.998848	0.046755	0.010796
654	3947885													9.883419	0.194004	-0.490400	-0.047615	-0.976490	0.210237	0.020515	0.209475	0.977599	-0.998655	0.050861	0.010059
655	3948052													9.901098	0.202649	-0.540498	-0.051592	-0.976216	0.210572	0.020690	0.209763	0.977533	-0.998454	0.054789	0.009376
656	3948218													9.878831	0.218486	-0.585256	-0.055332	-0.975934	0.210930	0.020946	0.210072	0.977461	-0.998248	0.058503	0.008818
657	3948385													9.877462	0.219879	-0.615452	-0.058867	-0.975650	0.211284	0.021237	0.210379	0.977389	-0.998040	0.062023	0.008336
658	3948552													9.846822	0.227504	-0.634230	-0.062134	-0.975364	0.211673	0.021592	0.210719	0.977308	-0.997834	0.065294	0.007967
659	3948718													9.825331	0.236950	-0.649657	-0.065271	-0.975063	0.212111	0.021992	0.211107	0.977216	-0.997625	0.068449	0.007664
660	3948885													9.787840	0.234508	-0.686725	-0.068261	-0.974760	0.212566	0.022342	0.211516	0.977119	-0.997417	0.071448	0.007340
661	3949052													9.784234	0.258375	-0.723461	-0.071203	-0.974450	0.213018	0.022586	0.211930	0.977024	-0.997206	0.074378	0.006919
662	3949218													9.698808	0.263483	-0.721472	-0.074166	-0.974119	0.213520	0.022821	0.212396	0.976917	-0.996985	0.077327	0.006478
663	3949385													9.736094	0.257646	-0.743601	-0.077292	-0.973758	0.214060	0.023060	0.212899	0.976802	-0.996742	0.080436	0.005999
664	3949552													9.726978	0.254504	-0.762049	-0.080502	-0.973380	0.214595	0.023253	0.213401	0.976688	-0.996483	0.083615	0.005455
665	3949718													9.704749	0.252964	-0.792882	-0.083892	-0.972979	0.215115	0.023431	0.213890	0.976577	-0.996199	0.086967	0.004854
666	3949885													9.716894	0.199306	-0.813817	-0.087402	-0.972572	0.215559	0.023520	0.214312	0.976482	-0.995895	0.090416	0.004144
667	3950052													9.644034	0.189895	-0.834918	-0.091153	-0.972159	0.215868	0.023490	0.214611	0.976417	-0.995560	0.094074	0.003273
668	3950218													9.740027	0.186334	-0.901665	-0.095218	-0.971725	0.216065	0.023408	0.214805	0.976376	-0.995181	0.098026	0.002293
669	3950385													9.630731	0.175775	-0.940084	-0.099280	-0.971304	0.216128	0.023262	0.214876	0.976364	-0.994788	0.101961	0.001262
670	3950552													9.673811	0.193827	-1.003695	-0.103741	-0.970832	0.216154	0.023251	0.214900	0.976359	-0.994333	0.106314	0.000279
671	3950718													9.730536	0.167167	-1.019825	-0.108202	-0.970340	0.216176	0.023378	0.214909	0.976354	-0.993854	0.110697	-0.000569
672	3950885													9.749135	0.143056	-1.038162	-0.112692	-0.969863	0.216026	0.023510	0.214747	0.976387	-0.993352	0.115109	-0.001398
673	3951052													9.764102	0.181893	-1.061605	-0.117110	-0.969404	0.215732	0.023731	0.214434	0.976450	-0.992835	0.119472	-0.002108
674	3951218													9.792689	0.214153	-1.091017	-0.121422	-0.968951	0.215385	0.024127	0.214045	0.976526	-0.992308	0.123769	-0.002612
675	3951385													9.759696	0.238398	-1.096061	-0.125520	-0.968504	0.215045	0.024686	0.213643	0.976600	-0.991784	0.127892	-0.002908
676	3951552													9.706344	0.246547	-1.132045	-0.129606	-0.968046	0.214686	0.025272	0.213216	0.976678	-0.991243	0.132009	-0.003170
677	3951718													9.653759	0.227959	-1.178576	-0.133790	-0.967569	0.214266	0.025741	0.212744	0.976769	-0.990675	0.136197	-0.003557
678	3951885													9.677317	0.244199	-1.237273	-0.138133	-0.967075	0.213741	0.026116	0.212178	0.976882	-0.990069	0.140522	-0.004053
679	3952052													9.651913	0.256417	-1.282984	-0.142618	-0.966559	0.213127	0.026400	0.211537	0.977013	-0.989426	0.144966	-0.004651
680	3952218													9.621073	0.272803	-1.317509	-0.147249	-0.965992	0.212548	0.026666	0.210935	0.977136	-0.988740	0.149550	-0.005301
681	3952385													9.777568	0.213979	-1.356541	-0.152082	-0.965376	0.211943	0.026862	0.210321	0.977263	-0.988003	0.154317	-0.006054
682	3952552													9.917745	0.196604	-1.404994	-0.156676	-0.964788	0.211275	0.026848	0.209677	0.977402	-0.987285	0.158808	-0.006949
683	3952718													9.892887	0.191731	-1.422921	-0.160959	-0.964251	0.210502	0.026711	0.208949	0.977562	-0.986600	0.162970	-0.007877
684	3952885													9.805446	0.165908	-1.450004	-0.164915	-0.963764	0.209672	0.026575	0.208164	0.977733	-0.985950	0.166815	-0.008718
685	3953052													9.643998	0.148224	-1.469426	-0.168727	-0.963307	0.208734	0.026359	0.207285	0.977925	-0.985310	0.170504	-0.009582
686	3953218													9.562241	0.142364	-1.478393	-0.172697	-0.962831	0.207681	0.026083	0.206305	0.978140	-0.984630	0.174339	-0.010515
687	3953385													9.568014	0.179175	-1.544557	-0.176784	-0.962328	0.206571	0.025789	0.205276	0.978364	-0.983912	0.178287	-0.011472
688	3953552													9.567345	0.187154	-1.610086	-0.180949	-0.961783	0.205501	0.025581	0.204277	0.978579	-0.983160	0.182330	-0.012360
689	3953718													9.542276	0.197062	-1.667004	-0.185243	-0.961174	0.204522	0.025475	0.203357	0.978773	-0.982362	0.186522	-0.013184
690	3953885													9.530193	0.242437	-1.728823	-0.189670	-0.960492	0.203669	0.025504	0.202545	0.978941	-0.981517	0.190870	-0.013921
691	3954052													9.487986	0.252335	-1.793155	-0.194298	-0.959713	0.202975	0.025720	0.201863	0.979076	-0.980605	0.195453	-0.014538
692	3954218													9.463294	0.278739	-1.901434	-0.199219	-0.958814	0.202454	0.026190	0.201311	0.979177	-0.979605	0.200373	-0.014994
693	3954385													9.454293	0.292618	-1.961464	-0.204396	-0.957798	0.202103	0.026829	0.200903	0.979244	-0.978521	0.205575	-0.015367
694	3954552													9.474348	0.335003	-2.027574	-0.209860	-0.956654	0.201922	0.027614	0.200639	0.979276	-0.977341	0.211087	-0.015689
695	3954718													9.529375	0.372273	-2.074924	-0.215463	-0.955399	0.201962	0.028492	0.200581	0.979263	-0.976096	0.216749	-0.015996
696	3954885													9.519279	0.368913	-2.143153	-0.221082	-0.954067	0.202186	0.029430	0.200695	0.979212	-0.974811	0.222436	-0.016292
697	3955052													9.509302	0.362839	-2.216116	-0.226636	-0.952694	0.202511	0.030347	0.200913	0.979139	-0.973507	0.228054	-0.016623
698	3955218													9.460001	0.379828	-2.260683	-0.232128	-0.951275	0.202957	0.031288	0.201246	0.979041	-0.972182	0.233613	-0.016951
699	3955385													9.434135	0.396005	-2.331191	-0.237573	-0.949807	0.203533	0.032257	0.201702	0.978916	-0.970834	0.239129	-0.017281
700	3955552													9.391415	0.403739	-2.376028	-0.243033	-0.948281	0.204202	0.033211	0.202256	0.978769	-0.969449	0.244655	-0.017662
701	3955718													9.387648	0.418693	-2.452996	-0.248602	-0.946684	0.204907	0.034133	0.202855	0.978614	-0.968004	0.250280	-0.018117
702	3955885													9.517671	0.425986	-2.501784	-0.254121	-0.945050	0.205677	0.035018	0.203528	0.978443	-0.966538	0.255845	-0.018627
703	3956052													9.502615	0.338413	-2.561718	-0.259337	-0.943462	0.206453	0.035807	0.204227	0.978268	-0.965123	0.261094	-0.019181
704	3956218													9.440204	0.323253	-2.632627	-0.264350	-0.941806	0.207654	0.036355	0.205429	0.977996	-0.963741	0.266083	-0.020066
705	3956385													9.373695	0.386806	-2.673144	-0.269274	-0.940183	0.208681	0.036805	0.206480	0.977758	-0.962360	0.270965	-0.020996
706	3956552													9.306669	0.427487	-2.709436	-0.274135	-0.938540	0.209745	0.037313	0.207555	0.977511	-0.960967	0.275796	-0.021879
707	3956718													9.320679	0.353936	-2.749005	-0.279045	-0.936852	0.210812	0.037826	0.208638	0.977261	-0.959533	0.280674	-0.022782
708	3956885													9.415790	0.332689	-2.776084	-0.283707	-0.935242	0.211739	0.038255	0.209597	0.977039	-0.958148	0.285293	-0.023687
709	3957052													9.492971	0.363268	-2.777301	-0.288015	-0.933762	0.212453	0.038672	0.210331	0.976865	-0.956845	0.289568	-0.024468
710	3957218													9.520944	0.352710	-2.814998	-0.291757	-0.932458	0.213071	0.039036	0.210970	0.976713	-0.955695	0.293281	-0.025153
711	3957385													9.422465	0.395399	-2.832949	-0.295051	-0.931318	0.213521	0.039382	0.211426	0.976600	-0.954670	0.296556	-0.025704
712	3957552													9.295988	0.374494	-2.848446	-0.298075	-0.930265	0.213914	0.039602	0.211856	0.976498	-0.953721	0.299541	-0.026308
713	3957718													9.268281	0.387695	-2.878006	-0.301138	-0.929222	0.214155	0.039592	0.212202	0.976423	-0.952758	0.302517	-0.027113
714	3957885													9.301413	0.401598	-2.937397	-0.304203	-0.928194	0.214280	0.039465	0.212468	0.976371	-0.951789	0.305472	-0.028003
715	3958052													9.301931	0.407031	-2.963042	-0.307195	-0.927205	0.214296	0.039291	0.212635	0.976341	-0.950835	0.308347	-0.028890
716	3958218													9.249158	0.327194	-3.008219	-0.310177	-0.926240	0.214174	0.038955	0.212713	0.976338	-0.949880	0.311181	-0.029897
717	3958385													9.233365	0.368395	-3.044359	-0.313293	-0.925281	0.213782	0.038424	0.212580	0.976388	-0.948879	0.314110	-0.031046
718	3958552													9.157551	0.392236	-3.063982	-0.316512	-0.924294	0.213311	0.037845	0.212389	0.976452	-0.947833	0.317131	-0.032243
719	3958718													9.132315	0.356813	-3.088001	-0.319981	-0.923219	0.212789	0.037290	0.212151	0.976525	-0.946690	0.320404	-0.033457
720	3958885													9.160482	0.316253	-3.131642	-0.323550	-0.922107	0.212212	0.036653	0.211894	0.976605	-0.945501	0.323759	-0.034760
721	3959052													9.168315	0.327691	-3.148210	-0.327107	-0.921003	0.211552	0.036006	0.211557	0.976702	-0.944301	0.327103	-0.036040
722	3959218													9.178449	0.341479	-3.207425	-0.330663	-0.919877	0.210922	0.035414	0.211242	0.976792	-0.943084	0.330459	-0.037274
723	3959385													9.270809	0.322012	-3.257098	-0.334082	-0.918796	0.210244	0.034804	0.210882	0.976892	-0.941901	0.333680	-0.038474
724	3959552													9.256002	0.309676	-3.257373	-0.337190	-0.917813	0.209578	0.034223	0.210518	0.976991	-0.940814	0.336604	-0.039574
725	3959718													9.230407	0.314288	-3.265133	-0.340127	-0.916881	0.208908	0.033676	0.210134	0.977092	-0.939776	0.339371	-0.040595
726	3959885													9.159139	0.326190	-3.295069	-0.342939	-0.915976	0.208280	0.033207	0.209766	0.977188	-0.938771	0.342032	-0.041520
727	3960052													9.111323	0.304969	-3.330649	-0.345711	-0.915078	0.207644	0.032792	0.209371	0.977286	-0.937768	0.344667	-0.042375
728	3960218													9.037724	0.284261	-3.357015	-0.348627	-0.914120	0.206987	0.032385	0.208962	0.977387	-0.936702	0.347447	-0.043246
729	3960385													9.052885	0.284619	-3.411341	-0.351626	-0.913124	0.206308	0.032007	0.208526	0.977493	-0.935593	0.350316	-0.044097
730	3960552													9.092343	0.288298	-3.420335	-0.354706	-0.912069	0.205704	0.031662	0.208166	0.977581	-0.934442	0.353267	-0.044960
731	3960718													9.125202	0.301374	-3.424345	-0.357748	-0.911029	0.205041	0.031360	0.207728	0.977684	-0.933292	0.356194	-0.045745
732	3960885													9.070425	0.308257	-3.452595	-0.360689	-0.909988	0.204511	0.031190	0.207379	0.977763	-0.932165	0.359047	-0.046417
733	3961052													9.021789	0.291546	-3.494207	-0.363626	-0.908941	0.203968	0.031101	0.206989	0.977849	-0.931026	0.361915	-0.046997
734	3961218													9.047995	0.304536	-3.560031	-0.366542	-0.907880	0.203472	0.031026	0.206643	0.977924	-0.929884	0.364763	-0.047575
735	3961385													9.041069	0.340411	-3.549494	-0.369448	-0.906785	0.203097	0.031146	0.206354	0.977982	-0.928729	0.367639	-0.047995
736	3961552													9.128551	0.313292	-3.610521	-0.372317	-0.905708	0.202665	0.031417	0.205940	0.978060	-0.927574	0.370516	-0.048220
737	3961719													9.222025	0.426651	-3.599878	-0.374791	-0.904751	0.202380	0.031749	0.205638	0.978113	-0.926566	0.373013	-0.048346
738	3961885													9.216673	0.394410	-3.622803	-0.376939	-0.903872	0.202318	0.031833	0.205659	0.978106	-0.925691	0.375126	-0.048748
739	3962052													9.144893	0.401768	-3.637991	-0.378701	-0.903112	0.202419	0.031568	0.205977	0.978048	-0.924980	0.376778	-0.049494
740	3962219													8.928517	0.390311	-3.663582	-0.380341	-0.902366	0.202671	0.030983	0.206585	0.977938	-0.924327	0.378229	-0.050614
741	3962385													8.860843	0.353881	-3.692209	-0.382176	-0.901496	0.203095	0.030164	0.207491	0.977772	-0.923597	0.379807	-0.052106
742	3962552													8.830194	0.257583	-3.663721	-0.384227	-0.900503	0.203625	0.029205	0.208590	0.977567	-0.922777	0.381555	-0.053846
743	3962719													8.882523	0.200145	-3.672610	-0.386467	-0.899441	0.204081	0.028256	0.209623	0.977374	-0.921870	0.383490	-0.055598
744	3962885													8.995113	0.163797	-3.719297	-0.388732	-0.898387	0.204424	0.027405	0.210501	0.977209	-0.920943	0.385475	-0.057208
745	3963052													9.078924	0.116065	-3.740607	-0.390797	-0.897458	0.204564	0.026681	0.211099	0.977101	-0.920090	0.387306	-0.058552
746	3963219													9.000456	0.078060	-3.734439	-0.392673	-0.896654	0.204497	0.026146	0.211384	0.977053	-0.919306	0.389010	-0.059561
747	3963385													8.874150	0.010663	-3.759166	-0.394574	-0.895914	0.204081	0.025626	0.211286	0.977088	-0.918507	0.390763	-0.060409
748	3963552													8.803035	0.011573	-3.775464	-0.396660	-0.895182	0.203247	0.025161	0.210725	0.977222	-0.917621	0.392739	-0.061063
749	3963719													8.794024	0.081617	-3.788503	-0.398993	-0.894407	0.202091	0.024862	0.209761	0.977437	-0.916617	0.395015	-0.061456
750	3963885													8.848817	0.204918	-3.807802	-0.401397	-0.893613	0.200839	0.024828	0.208583	0.977690	-0.915568	0.397428	-0.061538
751	3964052													8.897276	0.219527	-3.872148	-0.403966	-0.892738	0.199577	0.024872	0.207372	0.977946	-0.914436	0.400020	-0.061567
752	3964219													8.974309	0.236390	-3.899867	-0.406476	-0.891881	0.198307	0.024799	0.206197	0.978196	-0.913325	0.402531	-0.061696
753	3964385													8.911141	0.274899	-3.893984	-0.408868	-0.891052	0.197113	0.024576	0.205163	0.978419	-0.912263	0.404888	-0.061986
754	3964552													8.952259	0.283536	-3.953375	-0.411173	-0.890215	0.196098	0.024267	0.204358	0.978595	-0.911234	0.407131	-0.062423
755	3964719													8.918975	0.258196	-3.984177	-0.413364	-0.889381	0.195272	0.023855	0.203800	0.978722	-0.910253	0.409227	-0.063028
756	3964885													8.867975	0.225690	-3.991768	-0.415470	-0.888556	0.194558	0.023305	0.203423	0.978814	-0.909308	0.411202	-0.063808
757	3965052													8.790341	0.248146	-3.988523	-0.417527	-0.887732	0.193917	0.022644	0.203178	0.978880	-0.908382	0.413100	-0.064731
758	3965219													8.768231	0.223021	-4.034619	-0.419657	-0.886831	0.193441	0.021956	0.203135	0.978904	-0.907417	0.415051	-0.065776
759	3965385													8.809529	0.161965	-4.035552	-0.421774	-0.885912	0.193048	0.021256	0.203193	0.978908	-0.906452	0.416981	-0.066870
760	3965552													8.815035	0.125055	-4.081771	-0.423865	-0.885009	0.192607	0.020479	0.203236	0.978916	-0.905494	0.418873	-0.068020
761	3965719													8.785524	0.112401	-4.123087	-0.425855	-0.884170	0.192070	0.019552	0.203239	0.978934	-0.904580	0.420639	-0.069263
762	3965885													8.804561	0.151492	-4.158396	-0.427832	-0.883345	0.191470	0.018567	0.203202	0.978961	-0.903668	0.422386	-0.070536
763	3966052													8.752122	0.174172	-4.183472	-0.429718	-0.882551	0.190909	0.017632	0.203183	0.978982	-0.902791	0.424052	-0.071751
764	3966219													8.770091	0.218290	-4.183690	-0.431577	-0.881742	0.190451	0.016890	0.203190	0.978994	-0.901918	0.425728	-0.072800
765	3966385													8.785507	0.171834	-4.208777	-0.433290	-0.880971	0.190131	0.016252	0.203290	0.978984	-0.901108	0.427274	-0.073766
766	3966552													8.867060	0.112228	-4.246210	-0.434782	-0.880294	0.189858	0.015655	0.203408	0.978969	-0.900400	0.428610	-0.074657
767	3966719													8.982984	0.110118	-4.276258	-0.435851	-0.879822	0.189596	0.014986	0.203534	0.978953	-0.899894	0.429519	-0.075525
768	3966885													8.947556	0.157935	-4.265116	-0.436388	-0.879588	0.189446	0.014406	0.203695	0.978928	-0.899643	0.429922	-0.076219
769	3967052													8.941577	0.176414	-4.238736	-0.436466	-0.879545	0.189467	0.013959	0.203939	0.978884	-0.899613	0.429894	-0.076735
770	3967219													8.875781	0.152222	-4.223518	-0.436066	-0.879704	0.189652	0.013660	0.204250	0.978824	-0.899811	0.429422	-0.077050
771	3967385													8.846109	0.129585	-4.205497	-0.435417	-0.879966	0.189927	0.013415	0.204610	0.978752	-0.900129	0.428712	-0.077286
772	3967552													8.913022	0.143831	-4.192725	-0.434444	-0.880366	0.190301	0.013169	0.205050	0.978663	-0.900602	0.427681	-0.077489
773	3967719													8.825609	0.130300	-4.188350	-0.433215	-0.880881	0.190719	0.012824	0.205561	0.978560	-0.901199	0.426373	-0.077755
774	3967885													8.811067	0.113327	-4.165982	-0.431943	-0.881401	0.191200	0.012349	0.206197	0.978433	-0.901816	0.424988	-0.078181
775	3968052													8.661749	0.132145	-4.104649	-0.430664	-0.881923	0.191677	0.011791	0.206865	0.978298	-0.902435	0.423578	-0.078690
776	3968219													8.728241	0.144569	-4.123221	-0.429546	-0.882332	0.192304	0.011306	0.207680	0.978132	-0.902974	0.422327	-0.079232
777	3968385													8.774819	0.112095	-4.142916	-0.428485	-0.882687	0.193040	0.010878	0.208591	0.977943	-0.903483	0.421134	-0.079776
778	3968552													8.773591	0.075717	-4.089561	-0.427417	-0.883052	0.193737	0.010467	0.209449	0.977763	-0.903994	0.419940	-0.080279
779	3968719													8.898872	0.045599	-4.057347	-0.426284	-0.883471	0.194320	0.010015	0.210193	0.977609	-0.904534	0.418685	-0.080754
780	3968885													9.036760	0.050845	-4.039972	-0.424912	-0.884031	0.194780	0.009439	0.210832	0.977477	-0.905186	0.417180	-0.081241
781	3969052													9.059209	0.063064	-4.014456	-0.423087	-0.884820	0.195168	0.008709	0.211415	0.977358	-0.906047	0.415207	-0.081741
782	3969219													8.987618	0.063565	-4.011919	-0.420912	-0.885789	0.195475	0.007685	0.212005	0.977238	-0.907069	0.412833	-0.082428
783	3969385													8.891882	0.101967	-3.968304	-0.418551	-0.886848	0.195743	0.006401	0.212644	0.977109	-0.908171	0.410222	-0.083326
784	3969552													8.829161	0.134812	-3.996453	-0.416172	-0.887895	0.196071	0.004948	0.213417	0.976949	-0.909272	0.407549	-0.084425
785	3969719													8.655516	0.173506	-3.973483	-0.413915	-0.888849	0.196527	0.003449	0.214356	0.976749	-0.910309	0.404969	-0.085660
786	3969885													8.617575	0.162248	-3.914346	-0.412116	-0.889528	0.197233	0.002197	0.215499	0.976502	-0.911129	0.402865	-0.086856
787	3970052													8.766523	0.050382	-3.907397	-0.410788	-0.889950	0.198098	0.001217	0.216742	0.976228	-0.911730	0.401264	-0.087952
788	3970219													8.821728	-0.041100	-3.916606	-0.409617	-0.890304	0.198930	0.000358	0.217907	0.975969	-0.912258	0.399845	-0.088939
789	3970385													8.763508	-0.061730	-3.930932	-0.408705	-0.890553	0.199689	-0.000328	0.218941	0.975738	-0.912666	0.398724	-0.089774
790	3970552													8.682696	-0.095621	-3.956085	-0.408063	-0.890702	0.200337	-0.000799	0.219787	0.975548	-0.912953	0.397925	-0.090398
791	3970719													8.630275	-0.142467	-3.916889	-0.407890	-0.890681	0.200782	-0.001100	0.220387	0.975412	-0.913031	0.397640	-0.090873
792	3970885													8.699656	-0.164239	-3.918742	-0.408113	-0.890529	0.201004	-0.001221	0.220707	0.975339	-0.912931	0.397803	-0.091160
793	3971052													8.806111	-0.136005	-3.907339	-0.408548	-0.890325	0.201022	-0.001153	0.220744	0.975331	-0.912736	0.398238	-0.091211
794	3971219													8.936985	-0.123961	-3.922956	-0.409007	-0.890134	0.200933	-0.000890	0.220582	0.975368	-0.912531	0.398754	-0.091012
795	3971385													8.976602	-0.093706	-3.970319	-0.409188	-0.890095	0.200737	-0.000412	0.220179	0.975460	-0.912450	0.399064	-0.090461
796	3971552													8.883697	-0.071389	-3.968277	-0.409176	-0.890160	0.200475	0.000094	0.219668	0.975575	-0.912455	0.399201	-0.089799
797	3971719													8.840695	-0.041790	-3.951815	-0.409199	-0.890219	0.200164	0.000613	0.219103	0.975702	-0.912445	0.399379	-0.089111
798	3971885													8.861157	-0.008893	-3.950311	-0.409212	-0.890277	0.199883	0.001136	0.218567	0.975821	-0.912439	0.399545	-0.088429
799	3972052													8.903201	0.006309	-3.957073	-0.409213	-0.890330	0.199643	0.001641	0.218083	0.975929	-0.912437	0.399690	-0.087781
800	3972219													8.947098	0.031722	-3.963444	-0.409114	-0.890407	0.199502	0.002135	0.217702	0.976013	-0.912481	0.399726	-0.087163
801	3972385													8.979856	0.023792	-3.953028	-0.408806	-0.890542	0.199530	0.002687	0.217459	0.976066	-0.912618	0.399557	-0.086506
802	3972552													8.973775	0.004836	-3.978874	-0.408231	-0.890786	0.199620	0.003175	0.217284	0.976103	-0.912873	0.399109	-0.085874
803	3972719													8.905573	-0.028867	-3.998087	-0.407480	-0.891106	0.199725	0.003568	0.217151	0.976132	-0.913207	0.398467	-0.085305
804	3972885													8.742122	-0.031337	-3.961314	-0.406773	-0.891416	0.199782	0.003838	0.217023	0.976159	-0.913521	0.397841	-0.084858
805	3973052													8.717463	0.003596	-3.915900	-0.406352	-0.891605	0.199797	0.004107	0.216879	0.976190	-0.913708	0.397497	-0.084467
806	3973219													8.780684	0.010246	-3.901664	-0.406190	-0.891673	0.199821	0.004460	0.216736	0.976220	-0.913778	0.397422	-0.084059
807	3973385													8.890812	-0.009985	-3.868031	-0.406156	-0.891687	0.199829	0.004948	0.216529	0.976264	-0.913790	0.397504	-0.083532
808	3973552													8.922168	0.000687	-3.889625	-0.406084	-0.891719	0.199831	0.005467	0.216298	0.976312	-0.913819	0.397557	-0.082961
809	3973719													8.922512	0.004716	-3.865672	-0.406046	-0.891759	0.199734	0.006003	0.215955	0.976385	-0.913833	0.397656	-0.082334
810	3973885													8.830659	0.003815	-3.843545	-0.406029	-0.891799	0.199585	0.006475	0.215585	0.976464	-0.913837	0.397765	-0.081759
811	3974052													8.854182	0.012829	-3.867427	-0.406318	-0.891730	0.199308	0.006766	0.215182	0.976550	-0.913707	0.398139	-0.081399
812	3974219													8.747306	0.049106	-3.834446	-0.406758	-0.891604	0.198972	0.006937	0.214783	0.976637	-0.913510	0.398635	-0.081179
813	3974385													8.807876	0.109744	-3.867725	-0.407572	-0.891294	0.198694	0.007184	0.214450	0.976709	-0.913145	0.399507	-0.081000
814	3974552													8.836950	0.074223	-3.908510	-0.408537	-0.890874	0.198596	0.007551	0.214275	0.976744	-0.912710	0.400536	-0.080812
815	3974719													8.817442	0.042924	-3.898507	-0.409615	-0.890414	0.198439	0.007819	0.214090	0.976783	-0.912225	0.401656	-0.080732
816	3974885													8.882461	0.067429	-3.901918	-0.410818	-0.889901	0.198255	0.008089	0.213886	0.976825	-0.911682	0.402901	-0.080670
817	3975052													8.983154	0.101371	-3.903714	-0.411836	-0.889459	0.198126	0.008386	0.213712	0.976861	-0.911219	0.403968	-0.080555
818	3975219													8.979020	0.121237	-3.946246	-0.412598	-0.889104	0.198132	0.008770	0.213622	0.976877	-0.910871	0.404795	-0.080342
819	3975385													8.939377	0.144955	-3.933794	-0.413130	-0.888821	0.198292	0.009230	0.213644	0.976868	-0.910625	0.405404	-0.080059
820	3975552													8.925150	0.119283	-3.943859	-0.413496	-0.888596	0.198540	0.009599	0.213789	0.976833	-0.910456	0.405822	-0.079871
821	3975719													8.895376	0.123630	-3.967968	-0.413721	-0.888436	0.198786	0.009795	0.213992	0.976786	-0.910351	0.406064	-0.079831
822	3975885													8.897135	0.129031	-3.972441	-0.413843	-0.888309	0.199102	0.009929	0.214292	0.976719	-0.910294	0.406186	-0.079863
823	3976052													8.860003	0.154102	-3.980096	-0.413842	-0.888225	0.199475	0.010051	0.214648	0.976640	-0.910293	0.406180	-0.079903
824	3976219													8.854523	0.090846	-4.024279	-0.413788	-0.888152	0.199916	0.010214	0.215055	0.976549	-0.910316	0.406126	-0.079916
825	3976385													8.880523	0.032748	-4.063169	-0.413543	-0.888181	0.200293	0.010291	0.215411	0.976469	-0.910426	0.405874	-0.079942
826	3976552													8.765954	0.072560	-4.066233	-0.413323	-0.888216	0.200592	0.010328	0.215702	0.976405	-0.910526	0.405642	-0.079981
827	3976719													8.812459	0.084644	-4.047195	-0.413160	-0.888231	0.200861	0.010390	0.215954	0.976348	-0.910599	0.405475	-0.079995
828	3976885													8.812290	0.104776	-4.018324	-0.412961	-0.888255	0.201163	0.010527	0.216206	0.976291	-0.910688	0.405288	-0.079934
829	3977052													8.807440	0.075844	-3.993840	-0.412801	-0.888264	0.201451	0.010709	0.216426	0.976240	-0.910758	0.405150	-0.079828
830	3977219													8.860134	0.078708	-4.019385	-0.412662	-0.888274	0.201690	0.010904	0.216590	0.976202	-0.910819	0.405041	-0.079693
831	3977385													8.867333	0.080485	-4.031168	-0.412460	-0.888329	0.201864	0.011038	0.216702	0.976175	-0.910909	0.404861	-0.079575
832	3977552													8.890546	0.091499	-4.022377	-0.412188	-0.888430	0.201974	0.011139	0.216752	0.976163	-0.911031	0.404612	-0.079446
833	3977719													8.847303	0.106105	-4.035007	-0.411828	-0.888585	0.202025	0.011213	0.216740	0.976165	-0.911192	0.404278	-0.079296
834	3977885													8.873089	0.080601	-4.027568	-0.411379	-0.888801	0.201992	0.011277	0.216633	0.976188	-0.911395	0.403861	-0.079095
835	3978052													8.842865	0.091666	-4.005088	-0.410813	-0.889086	0.201885	0.011274	0.216463	0.976226	-0.911650	0.403323	-0.078902
836	3978219													8.879461	0.089570	-4.033856	-0.410176	-0.889421	0.201709	0.011217	0.216234	0.976277	-0.911937	0.402708	-0.078717
837	3978386													8.939201	0.085860	-4.028107	-0.409370	-0.889846	0.201471	0.011140	0.215931	0.976345	-0.912301	0.401931	-0.078482
838	3978552													8.948954	0.051585	-4.007638	-0.408279	-0.890409	0.201198	0.011042	0.215572	0.976426	-0.912791	0.400875	-0.078182
839	3978719													8.946607	0.058026	-4.008948	-0.406917	-0.891100	0.200897	0.010938	0.215160	0.976518	-0.913400	0.399559	-0.077805
840	3978886													8.960682	0.065421	-4.027918	-0.405188	-0.891956	0.200593	0.010840	0.214708	0.976618	-0.914169	0.397888	-0.077329
841	3979052													8.962800	0.086947	-3.988237	-0.403160	-0.892942	0.200291	0.010773	0.214220	0.976726	-0.915066	0.395934	-0.076745
842	3979219													8.968262	0.114549	-3.968313	-0.400835	-0.894046	0.200032	0.010681	0.213764	0.976827	-0.916088	0.393683	-0.076135
843	3979386													8.959365	0.154233	-3.905389	-0.398258	-0.895224	0.199911	0.010586	0.213441	0.976899	-0.917212	0.391174	-0.075528
844	3979552													8.977117	0.142885	-3.844857	-0.395487	-0.896439	0.199969	0.010519	0.213284	0.976934	-0.918411	0.388468	-0.074921
845	3979719													8.989635	0.142735	-3.800967	-0.392505	-0.897697	0.200199	0.010440	0.213304	0.976930	-0.919691	0.385540	-0.074351
846	3979886													8.998525	0.103604	-3.781765	-0.389420	-0.898958	0.200563	0.010309	0.213485	0.976892	-0.921003	0.382489	-0.073868
847	3980052													8.946685	0.107997	-3.740142	-0.386283	-0.900220	0.200969	0.010087	0.213745	0.976837	-0.922325	0.379363	-0.073485
848	3980219													9.116278	0.202116	-3.664074	-0.383223	-0.901404	0.201521	0.009897	0.214158	0.976749	-0.923603	0.376307	-0.073149
849	3980386													9.163823	0.148156	-3.571986	-0.379941	-0.902603	0.202366	0.009780	0.214839	0.976600	-0.924959	0.373030	-0.072799
850	3980552													9.117456	0.100504	-3.555345	-0.376656	-0.903805	0.203144	0.009297	0.215595	0.976439	-0.926307	0.369670	-0.072802
851	3980719													8.855399	0.141431	-3.506385	-0.373442	-0.904986	0.203817	0.008344	0.216427	0.976263	-0.927616	0.366278	-0.073271
852	3980886													8.877644	0.135627	-3.525685	-0.370841	-0.905891	0.204545	0.007245	0.217421	0.976051	-0.928668	0.363441	-0.074066
853	3981052													8.918984	0.011010	-3.521229	-0.368593	-0.906657	0.205213	0.005995	0.218433	0.975834	-0.929572	0.360915	-0.075077
854	3981219													9.048095	-0.017263	-3.529567	-0.366555	-0.907364	0.205739	0.004595	0.219362	0.975633	-0.930385	0.358568	-0.076239
855	3981386													9.116984	-0.055668	-3.521910	-0.364424	-0.908130	0.206142	0.003315	0.220098	0.975472	-0.931227	0.356169	-0.077199
856	3981552													9.202199	-0.067276	-3.532630	-0.362053	-0.909008	0.206452	0.002271	0.220616	0.975358	-0.932155	0.353600	-0.077811
857	3981719													9.232764	-0.064432	-3.465136	-0.359329	-0.910035	0.206686	0.001452	0.220933	0.975288	-0.933210	0.350750	-0.078066
858	3981886													9.199700	-0.068903	-3.416169	-0.356164	-0.911241	0.206850	0.000793	0.221071	0.975257	-0.934423	0.347515	-0.078015
859	3982052													9.136568	-0.071611	-3.387964	-0.352767	-0.912550	0.206902	0.000238	0.221030	0.975267	-0.935711	0.344091	-0.077755
860	3982219													9.114883	-0.048917	-3.355355	-0.349293	-0.913891	0.206876	-0.000292	0.220888	0.975299	-0.937014	0.340605	-0.077422
861	3982386													9.151257	-0.035715	-3.327803	-0.345773	-0.915245	0.206803	-0.000846	0.220701	0.975341	-0.938318	0.337072	-0.077087
862	3982552													9.183051	-0.023496	-3.255983	-0.342209	-0.916591	0.206771	-0.001260	0.220504	0.975385	-0.939623	0.333525	-0.076613
863	3982719													9.389240	-0.042880	-3.208413	-0.338687	-0.917914	0.206701	-0.001659	0.220266	0.975438	-0.940898	0.330026	-0.076124
864	3982886													9.517844	-0.050444	-3.138151	-0.334673	-0.919408	0.206598	-0.002073	0.219958	0.975507	-0.942332	0.326047	-0.075520
865	3983052													9.412073	-0.018538	-3.056486	-0.330301	-0.921010	0.206499	-0.002557	0.219650	0.975575	-0.943872	0.321705	-0.074906
866	3983219													9.346353	-0.010751	-3.019470	-0.325774	-0.922644	0.206398	-0.003056	0.219334	0.975645	-0.945443	0.317209	-0.074273
867	3983386													9.216616	-0.038619	-2.946398	-0.321159	-0.924287	0.206279	-0.003562	0.218995	0.975719	-0.947019	0.312626	-0.073625
868	3983552													9.194385	-0.066256	-2.927925	-0.316657	-0.925871	0.206135	-0.004022	0.218627	0.975800	-0.948532	0.308164	-0.072954
869	3983719													9.239044	-0.127418	-2.933490	-0.312202	-0.927438	0.205887	-0.004443	0.218143	0.975907	-0.950005	0.303765	-0.072225
870	3983886													9.267845	-0.186362	-2.946926	-0.307628	-0.929063	0.205441	-0.004822	0.217431	0.976064	-0.951494	0.299274	-0.071368
871	3984052													9.279571	-0.185715	-2.963061	-0.302919	-0.930755	0.204782	-0.005101	0.216458	0.976279	-0.953003	0.294688	-0.070317
