// Start Time: Unknown
// Update Rate: 60.0Hz
//Filter Profile: human (46.1)
// Option Flags: AHS Disabled ICC Disabled
// Firmware Version: 4.0.2
0	sampleTimeFine	Year	Month	Day	Second	UTC_Nano	UTC_Year	UTC_Month	UTC_Day	UTC_Hour	UTC_Minute	UTC_Second	UTC_Valid	Acc_X	Acc_Y	Acc_Z	Mat[1][1]	Mat[2][1]	Mat[3][1]	Mat[1][2]	Mat[2][2]	Mat[3][2]	Mat[1][3]	Mat[2][3]	Mat[3][3]
0	3838716													-0.235372	-0.175506	0.108924	0.195766	-0.948512	-0.249001	-0.000323	-0.253976	0.967210	-0.980651	-0.189266	-0.050026
1	3838883													9.643921	0.001941	1.947157	0.196053	-0.948158	-0.250119	-0.000037	-0.255076	0.966921	-0.980593	-0.189558	-0.050044
2	3839049													9.650367	0.014001	1.961818	0.196494	-0.947909	-0.250718	0.000062	-0.255691	0.966759	-0.980505	-0.189978	-0.050183
3	3839216													9.664117	0.018850	1.963674	0.197093	-0.947630	-0.251299	0.000314	-0.256266	0.966606	-0.980385	-0.190590	-0.050211
4	3839383													9.650803	0.021554	1.990767	0.197615	-0.947482	-0.251449	0.000566	-0.256397	0.966571	-0.980279	-0.191152	-0.050132
5	3839549													9.614751	-0.004843	1.987520	0.198230	-0.947346	-0.251476	0.000817	-0.256408	0.966568	-0.980155	-0.191808	-0.050053
6	3839716													9.610739	-0.013447	2.018801	0.198856	-0.947180	-0.251608	0.000907	-0.256557	0.966529	-0.980028	-0.192429	-0.050159
7	3839883													9.628406	-0.008597	2.014617	0.199488	-0.946941	-0.252008	0.000856	-0.257009	0.966409	-0.979900	-0.193002	-0.050459
8	3840049													9.630423	-0.007413	2.019502	0.200058	-0.946851	-0.251894	0.000775	-0.256938	0.966427	-0.979784	-0.193537	-0.050668
9	3840216													9.625846	0.003067	2.007995	0.200548	-0.946630	-0.252335	0.000689	-0.257431	0.966296	-0.979684	-0.193962	-0.050975
10	3840383													9.624276	0.035124	2.020329	0.200974	-0.946511	-0.252443	0.000612	-0.257579	0.966257	-0.979596	-0.194347	-0.051188
11	3840549													9.635651	0.048093	2.023418	0.201342	-0.946353	-0.252739	0.000559	-0.257912	0.966168	-0.979521	-0.194671	-0.051399
12	3840716													9.635647	0.016608	1.984327	0.201628	-0.946269	-0.252825	0.000491	-0.258028	0.966137	-0.979462	-0.194925	-0.051561
13	3840883													9.635851	0.029876	2.016502	0.201818	-0.946235	-0.252801	0.000384	-0.258036	0.966135	-0.979423	-0.195080	-0.051713
14	3841049													9.680893	-0.006997	1.952429	0.201928	-0.946197	-0.252856	0.000179	-0.258139	0.966108	-0.979400	-0.195129	-0.051956
15	3841216													9.606475	-0.050308	1.912338	0.202000	-0.946218	-0.252722	-0.000113	-0.258063	0.966128	-0.979385	-0.195129	-0.052236
16	3841383													9.731012	-0.032514	1.896495	0.201736	-0.946260	-0.252773	-0.000217	-0.258122	0.966112	-0.979440	-0.194845	-0.052278
17	3841549													9.649858	0.072461	1.950277	0.201695	-0.946208	-0.253001	-0.000222	-0.258354	0.966050	-0.979448	-0.194791	-0.052318
18	3841716													9.554381	-0.025763	1.905511	0.201702	-0.946113	-0.253351	-0.000264	-0.258720	0.965952	-0.979447	-0.194767	-0.052434
19	3841883													9.694991	0.017591	2.007196	0.201753	-0.946123	-0.253274	-0.000408	-0.258673	0.965965	-0.979436	-0.194783	-0.052574
20	3842049													9.611808	0.041051	2.013666	0.201737	-0.946097	-0.253384	-0.000505	-0.258803	0.965930	-0.979440	-0.194736	-0.052688
21	3842216													9.580051	0.066024	2.091262	0.201663	-0.946085	-0.253486	-0.000503	-0.258903	0.965903	-0.979455	-0.194659	-0.052687
22	3842383													9.612515	0.016715	2.091007	0.201430	-0.946115	-0.253560	-0.000501	-0.258966	0.965886	-0.979503	-0.194431	-0.052638
23	3842549													9.591225	0.010849	2.081969	0.201063	-0.946171	-0.253642	-0.000556	-0.259040	0.965866	-0.979578	-0.194059	-0.052610
24	3842716													9.593253	0.022109	2.050759	0.200634	-0.946207	-0.253847	-0.000606	-0.259236	0.965814	-0.979666	-0.193621	-0.052585
25	3842883													9.633554	-0.032849	2.012016	0.200240	-0.946292	-0.253843	-0.000660	-0.259220	0.965818	-0.979747	-0.193228	-0.052531
26	3843049													9.608348	-0.010666	1.984878	0.199934	-0.946318	-0.253986	-0.000730	-0.259364	0.965779	-0.979809	-0.192907	-0.052547
27	3843216													9.644663	-0.015371	1.992567	0.199702	-0.946344	-0.254073	-0.000777	-0.259448	0.965757	-0.979856	-0.192667	-0.052548
28	3843383													9.607384	0.004395	1.911797	0.199473	-0.946442	-0.253885	-0.000935	-0.259276	0.965803	-0.979903	-0.192414	-0.052603
29	3843549													9.634228	-0.027090	1.970101	0.199263	-0.946514	-0.253782	-0.001072	-0.259186	0.965827	-0.979945	-0.192181	-0.052661
30	3843716													9.678964	-0.016846	1.885641	0.198793	-0.946587	-0.253880	-0.001150	-0.259276	0.965803	-0.980041	-0.191703	-0.052631
31	3843883													9.660291	0.024615	1.922661	0.198508	-0.946615	-0.253997	-0.001146	-0.259378	0.965775	-0.980099	-0.191423	-0.052573
32	3844049													9.657662	-0.003568	1.930011	0.198163	-0.946653	-0.254125	-0.001181	-0.259497	0.965743	-0.980168	-0.191075	-0.052540
33	3844216													9.658720	-0.016457	1.919702	0.197812	-0.946730	-0.254113	-0.001264	-0.259481	0.965747	-0.980239	-0.190716	-0.052525
34	3844383													9.623169	0.000357	1.952255	0.197545	-0.946770	-0.254170	-0.001354	-0.259543	0.965731	-0.980293	-0.190431	-0.052553
35	3844549													9.609868	0.041038	1.960392	0.197254	-0.946850	-0.254097	-0.001398	-0.259461	0.965753	-0.980352	-0.190143	-0.052504
36	3844716													9.652019	0.000096	1.942038	0.196909	-0.946929	-0.254072	-0.001437	-0.259425	0.965762	-0.980421	-0.189803	-0.052444
37	3844883													9.641254	0.001706	1.905429	0.196601	-0.946967	-0.254166	-0.001477	-0.259511	0.965739	-0.980482	-0.189490	-0.052419
38	3845050													9.656067	0.006156	1.903278	0.196379	-0.946997	-0.254228	-0.001493	-0.259565	0.965725	-0.980527	-0.189268	-0.052387
39	3845216													9.639409	0.012911	1.914048	0.196148	-0.947038	-0.254252	-0.001522	-0.259583	0.965720	-0.980573	-0.189037	-0.052358
40	3845383													9.631988	0.018838	1.914194	0.195830	-0.947158	-0.254053	-0.001530	-0.259364	0.965778	-0.980637	-0.188740	-0.052240
41	3845550													9.666834	-0.001277	1.908038	0.195487	-0.947271	-0.253895	-0.001506	-0.259179	0.965828	-0.980705	-0.188424	-0.052093
42	3845716													9.663607	-0.004409	1.917196	0.195154	-0.947320	-0.253967	-0.001528	-0.259239	0.965812	-0.980771	-0.188094	-0.052039
43	3845883													9.657541	-0.000144	1.915395	0.194903	-0.947390	-0.253901	-0.001576	-0.259168	0.965831	-0.980821	-0.187843	-0.052006
44	3846050													9.662655	-0.023295	1.878678	0.194713	-0.947447	-0.253833	-0.001558	-0.259084	0.965853	-0.980859	-0.187668	-0.051923
45	3846216													9.657544	-0.012402	1.902975	0.194608	-0.947435	-0.253957	-0.001518	-0.259198	0.965823	-0.980880	-0.187571	-0.051881
46	3846383													9.658424	0.005396	1.959243	0.194542	-0.947434	-0.254014	-0.001486	-0.259246	0.965810	-0.980893	-0.187513	-0.051842
47	3846550													9.618779	0.011240	1.967825	0.194414	-0.947471	-0.253970	-0.001469	-0.259192	0.965825	-0.980918	-0.187397	-0.051782
48	3846716													9.635692	0.016270	1.951508	0.194231	-0.947475	-0.254098	-0.001513	-0.259320	0.965790	-0.980955	-0.187202	-0.051801
49	3846883													9.647287	0.028100	1.940366	0.193955	-0.947506	-0.254194	-0.001580	-0.259416	0.965764	-0.981009	-0.186913	-0.051812
50	3847050													9.660813	0.031213	1.953518	0.193721	-0.947568	-0.254139	-0.001658	-0.259362	0.965779	-0.981055	-0.186671	-0.051815
51	3847216													9.657188	-0.029833	1.878353	0.193394	-0.947678	-0.253979	-0.001869	-0.259222	0.965816	-0.981119	-0.186308	-0.051903
52	3847383													9.633873	-0.014421	1.810299	0.193096	-0.947796	-0.253764	-0.001983	-0.259008	0.965873	-0.981178	-0.186003	-0.051892
53	3847550													9.748342	0.004651	1.809697	0.192699	-0.947911	-0.253638	-0.001872	-0.258837	0.965919	-0.981256	-0.185657	-0.051653
54	3847716													9.652408	0.074630	1.863760	0.192675	-0.947880	-0.253773	-0.001691	-0.258939	0.965892	-0.981261	-0.185674	-0.051494
55	3847883													9.665490	-0.016408	1.911340	0.192793	-0.947854	-0.253778	-0.001668	-0.258946	0.965890	-0.981238	-0.185793	-0.051504
56	3848050													9.657830	0.025924	1.957319	0.192879	-0.947877	-0.253626	-0.001710	-0.258804	0.965928	-0.981221	-0.185874	-0.051539
57	3848216													9.580230	0.051193	1.996403	0.192787	-0.947940	-0.253460	-0.001673	-0.258623	0.965977	-0.981239	-0.185804	-0.051445
58	3848383													9.580587	0.068728	2.008427	0.192599	-0.947973	-0.253480	-0.001594	-0.258618	0.965978	-0.981276	-0.185643	-0.051321
59	3848550													9.626759	0.026161	1.991161	0.192254	-0.948053	-0.253444	-0.001612	-0.258567	0.965992	-0.981344	-0.185307	-0.051239
60	3848716													9.571325	0.008721	1.971549	0.191847	-0.948129	-0.253467	-0.001713	-0.258588	0.965986	-0.981423	-0.184887	-0.051234
61	3848883													9.590971	0.011404	1.954662	0.191511	-0.948211	-0.253416	-0.001758	-0.258526	0.966003	-0.981489	-0.184555	-0.051178
62	3849050													9.626493	0.010488	1.933000	0.191219	-0.948296	-0.253318	-0.001826	-0.258424	0.966030	-0.981546	-0.184260	-0.051147
63	3849216													9.672462	0.030831	1.919988	0.190970	-0.948362	-0.253258	-0.001851	-0.258354	0.966049	-0.981594	-0.184017	-0.051094
64	3849383													9.616228	0.027517	1.899409	0.190684	-0.948457	-0.253120	-0.001934	-0.258214	0.966086	-0.981650	-0.183727	-0.051072
65	3849550													9.643176	-0.007292	1.866376	0.190379	-0.948478	-0.253271	-0.002098	-0.258382	0.966041	-0.981708	-0.183383	-0.051180
66	3849716													9.675005	-0.022460	1.843564	0.189940	-0.948554	-0.253314	-0.002177	-0.258417	0.966031	-0.981793	-0.182937	-0.051149
67	3849883													9.757023	0.059510	1.813161	0.189692	-0.948539	-0.253557	-0.002088	-0.258635	0.965973	-0.981842	-0.182708	-0.051041
68	3850050													9.643061	0.004381	1.836783	0.189557	-0.948568	-0.253550	-0.002068	-0.258617	0.965978	-0.981868	-0.182583	-0.050984
69	3850216													9.677471	0.005908	1.813913	0.189400	-0.948672	-0.253278	-0.002110	-0.258339	0.966052	-0.981898	-0.182436	-0.050932
70	3850383													9.644114	0.026850	1.859138	0.189289	-0.948697	-0.253268	-0.002114	-0.258324	0.966056	-0.981919	-0.182329	-0.050904
71	3850550													9.624493	0.043744	1.867993	0.189160	-0.948737	-0.253211	-0.002085	-0.258254	0.966075	-0.981944	-0.182215	-0.050829
72	3850716													9.662014	0.035676	1.851213	0.189002	-0.948811	-0.253054	-0.002055	-0.258080	0.966121	-0.981975	-0.182079	-0.050728
73	3850883													9.640955	0.016708	1.842981	0.188897	-0.948945	-0.252629	-0.002075	-0.257645	0.966237	-0.981995	-0.181995	-0.050638
74	3851216													9.663417	0.047481	1.851806	0.188751	-0.949088	-0.252201	-0.001968	-0.257182	0.966361	-0.982023	-0.181905	-0.050411
75	3851383													9.652112	0.038348	1.865943	0.188775	-0.949079	-0.252216	-0.001915	-0.257189	0.966359	-0.982018	-0.181942	-0.050369
76	3851550													9.662523	0.038873	1.867141	0.188862	-0.949142	-0.251913	-0.001854	-0.256874	0.966443	-0.982002	-0.182057	-0.050274
77	3851716													9.667848	0.022927	1.881232	0.188936	-0.949178	-0.251722	-0.001810	-0.256675	0.966496	-0.981988	-0.182150	-0.050213
78	3851883													9.662333	0.022416	1.873589	0.189021	-0.949193	-0.251601	-0.001751	-0.256545	0.966531	-0.981971	-0.182254	-0.050154
79	3852050													9.673369	0.027730	1.897199	0.189164	-0.949190	-0.251506	-0.001721	-0.256450	0.966556	-0.981944	-0.182405	-0.050145
80	3852216													9.655418	0.042239	1.908414	0.189357	-0.949181	-0.251394	-0.001666	-0.256336	0.966586	-0.981907	-0.182611	-0.050120
81	3852383													9.625093	0.019079	1.956260	0.189550	-0.949154	-0.251351	-0.001621	-0.256294	0.966597	-0.981870	-0.182811	-0.050119
82	3852550													9.637610	0.037750	1.925012	0.189676	-0.949118	-0.251394	-0.001614	-0.256343	0.966585	-0.981845	-0.182932	-0.050153
83	3852716													9.630451	0.058982	1.965720	0.189815	-0.949094	-0.251379	-0.001622	-0.256337	0.966586	-0.981818	-0.183065	-0.050196
84	3852883													9.667826	0.011784	1.948196	0.189758	-0.949141	-0.251245	-0.001753	-0.256221	0.966617	-0.981829	-0.182983	-0.050284
85	3853050													9.626319	-0.039736	1.832750	0.189682	-0.949230	-0.250964	-0.001936	-0.255965	0.966684	-0.981844	-0.182877	-0.050390
86	3853216													9.699171	0.011297	1.809146	0.189547	-0.949265	-0.250934	-0.001919	-0.255924	0.966695	-0.981870	-0.182753	-0.050332
87	3853383													9.720709	0.119142	1.846579	0.189577	-0.949251	-0.250963	-0.001659	-0.255908	0.966700	-0.981865	-0.182847	-0.050088
88	3853550													9.696785	0.024631	1.849597	0.189892	-0.949223	-0.250831	-0.001577	-0.255774	0.966735	-0.981804	-0.183180	-0.050066
89	3853716													9.649957	0.015165	1.878948	0.190343	-0.949196	-0.250592	-0.001583	-0.255555	0.966793	-0.981716	-0.183626	-0.050146
90	3853883													9.648689	0.031770	1.932735	0.190758	-0.949148	-0.250457	-0.001537	-0.255431	0.966826	-0.981636	-0.184045	-0.050184
91	3854050													9.578454	0.101451	1.959552	0.191120	-0.949073	-0.250466	-0.001423	-0.255438	0.966824	-0.981566	-0.184423	-0.050170
92	3854216													9.655294	0.077206	1.987266	0.191408	-0.949030	-0.250410	-0.001376	-0.255386	0.966838	-0.981510	-0.184716	-0.050189
93	3854383													9.626953	0.036420	1.951165	0.191591	-0.949026	-0.250287	-0.001390	-0.255273	0.966868	-0.981474	-0.184896	-0.050227
94	3854550													9.567745	0.048357	1.954519	0.191768	-0.949034	-0.250119	-0.001439	-0.255121	0.966908	-0.981439	-0.185062	-0.050290
95	3854716													9.613111	0.031385	1.945499	0.191919	-0.949017	-0.250066	-0.001503	-0.255086	0.966917	-0.981410	-0.185194	-0.050382
96	3854883													9.661303	0.055326	1.954355	0.192127	-0.948958	-0.250132	-0.001534	-0.255171	0.966895	-0.981369	-0.185383	-0.050481
97	3855050													9.655349	0.029235	1.945897	0.192402	-0.948887	-0.250189	-0.001599	-0.255255	0.966872	-0.981315	-0.185628	-0.050629
98	3855216													9.626033	0.007788	1.902204	0.192691	-0.948840	-0.250146	-0.001819	-0.255269	0.966868	-0.981258	-0.185852	-0.050913
99	3855383													9.640721	0.022226	1.976501	0.193011	-0.948783	-0.250115	-0.002025	-0.255292	0.966862	-0.981194	-0.186109	-0.051195
100	3855550													9.746303	0.064900	1.928654	0.193214	-0.948700	-0.250272	-0.002072	-0.255472	0.966814	-0.981155	-0.186283	-0.051327
101	3855716													9.637685	0.039593	1.936744	0.193485	-0.948636	-0.250308	-0.002169	-0.255542	0.966796	-0.981101	-0.186517	-0.051501
102	3855883													9.641491	0.016170	1.931496	0.193708	-0.948566	-0.250398	-0.002377	-0.255686	0.966757	-0.981056	-0.186673	-0.051783
103	3856050													9.649011	0.028141	1.930860	0.193891	-0.948518	-0.250441	-0.002591	-0.255779	0.966732	-0.981020	-0.186792	-0.052051
104	3856216													9.599670	0.046825	1.931074	0.194067	-0.948465	-0.250505	-0.002763	-0.255887	0.966703	-0.980984	-0.186913	-0.052280
105	3856383													9.624726	0.047886	1.927003	0.194240	-0.948436	-0.250480	-0.002986	-0.255914	0.966695	-0.980949	-0.187023	-0.052541
106	3856550													9.630048	0.027853	1.932390	0.194398	-0.948383	-0.250559	-0.003224	-0.256048	0.966659	-0.980917	-0.187109	-0.052833
107	3856716													9.646479	0.035439	1.955977	0.194587	-0.948382	-0.250417	-0.003469	-0.255960	0.966681	-0.980879	-0.187235	-0.053096
108	3856883													9.655676	0.020571	1.931929	0.194740	-0.948377	-0.250317	-0.003694	-0.255910	0.966694	-0.980848	-0.187329	-0.053339
109	3857050													9.646836	0.011354	1.961479	0.194933	-0.948341	-0.250299	-0.003889	-0.255940	0.966685	-0.980809	-0.187466	-0.053579
110	3857216													9.664083	0.024045	1.947999	0.195154	-0.948325	-0.250188	-0.004050	-0.255870	0.966703	-0.980764	-0.187643	-0.053775
111	3857383													9.652109	0.007563	1.947302	0.195372	-0.948311	-0.250070	-0.004178	-0.255786	0.966724	-0.980720	-0.187826	-0.053936
112	3857550													9.634591	0.008850	1.957834	0.195604	-0.948314	-0.249880	-0.004289	-0.255627	0.966766	-0.980674	-0.188032	-0.054069
113	3857716													9.626944	0.001318	1.956177	0.195830	-0.948292	-0.249788	-0.004379	-0.255562	0.966783	-0.980628	-0.188231	-0.054199
114	3857883													9.637881	-0.003680	1.990919	0.196092	-0.948219	-0.249857	-0.004472	-0.255667	0.966755	-0.980575	-0.188456	-0.054375
115	3858050													9.617638	0.013196	1.989266	0.196399	-0.948172	-0.249794	-0.004566	-0.255637	0.966762	-0.980513	-0.188731	-0.054536
116	3858216													9.623033	-0.011474	2.001915	0.196718	-0.948128	-0.249711	-0.004662	-0.255589	0.966774	-0.980449	-0.189018	-0.054700
117	3858383													9.609540	0.018222	2.002261	0.196999	-0.948085	-0.249652	-0.004765	-0.255564	0.966780	-0.980392	-0.189265	-0.054863
118	3858550													9.678859	0.000844	2.051709	0.197189	-0.948094	-0.249467	-0.004907	-0.255414	0.966819	-0.980353	-0.189422	-0.055018
119	3858716													9.591530	-0.039977	1.939079	0.197323	-0.948121	-0.249260	-0.005122	-0.255253	0.966861	-0.980325	-0.189507	-0.055223
120	3858883													9.679252	-0.048822	1.896327	0.197290	-0.948128	-0.249260	-0.005166	-0.255260	0.966859	-0.980332	-0.189463	-0.055259
121	3859050													9.742707	0.063135	1.938732	0.197347	-0.948068	-0.249441	-0.004965	-0.255408	0.966821	-0.980321	-0.189561	-0.055111
122	3859216													9.583499	-0.021904	1.938828	0.197703	-0.947974	-0.249518	-0.004829	-0.255481	0.966802	-0.980250	-0.189935	-0.055087
123	3859383													9.663377	-0.026406	1.959408	0.198127	-0.947878	-0.249547	-0.004771	-0.255524	0.966791	-0.980165	-0.190357	-0.055149
124	3859550													9.630118	0.027923	2.019520	0.198332	-0.947863	-0.249439	-0.004744	-0.255420	0.966819	-0.980123	-0.190568	-0.055155
125	3859716													9.582279	0.091640	2.051885	0.198392	-0.947932	-0.249130	-0.004661	-0.255092	0.966906	-0.980112	-0.190665	-0.055027
126	3859883													9.602922	0.041947	2.074202	0.198245	-0.948054	-0.248783	-0.004598	-0.254718	0.967005	-0.980142	-0.190560	-0.054855
127	3860050													9.599346	0.010982	2.015599	0.197968	-0.948189	-0.248488	-0.004531	-0.254388	0.967092	-0.980198	-0.190328	-0.054657
128	3860216													9.608744	0.014891	2.014694	0.197757	-0.948316	-0.248172	-0.004462	-0.254040	0.967183	-0.980241	-0.190160	-0.054469
129	3860383													9.608975	0.007675	2.002386	0.197640	-0.948384	-0.248005	-0.004368	-0.253845	0.967235	-0.980265	-0.190081	-0.054313
130	3860550													9.647485	0.003279	1.998356	0.197695	-0.948433	-0.247774	-0.004275	-0.253594	0.967301	-0.980254	-0.190171	-0.054189
131	3860716													9.635186	0.006759	2.016494	0.197749	-0.948463	-0.247614	-0.004152	-0.253410	0.967350	-0.980244	-0.190265	-0.054049
132	3860883													9.613421	0.013561	2.030467	0.197840	-0.948499	-0.247406	-0.004147	-0.253202	0.967404	-0.980226	-0.190365	-0.054027
133	3861050													9.639224	-0.014112	2.011960	0.197906	-0.948525	-0.247253	-0.004190	-0.253058	0.967442	-0.980212	-0.190426	-0.054056
134	3861216													9.624554	-0.018789	1.934210	0.197789	-0.948590	-0.247096	-0.004200	-0.252893	0.967485	-0.980236	-0.190321	-0.054004
135	3861383													9.722996	0.041913	1.966807	0.197943	-0.948567	-0.247061	-0.004098	-0.252847	0.967498	-0.980205	-0.190497	-0.053937
136	3861550													9.650395	0.011229	2.003488	0.198115	-0.948542	-0.247021	-0.004074	-0.252811	0.967507	-0.980170	-0.190671	-0.053950
137	3861717													9.657262	0.011955	1.985614	0.198322	-0.948502	-0.247007	-0.004118	-0.252817	0.967505	-0.980128	-0.190860	-0.054045
138	3861883													9.604145	0.043064	2.008102	0.198593	-0.948474	-0.246897	-0.004129	-0.252722	0.967530	-0.980073	-0.191126	-0.054105
139	3862050													9.604652	0.061089	2.006753	0.198797	-0.948468	-0.246757	-0.004151	-0.252595	0.967563	-0.980032	-0.191325	-0.054152
140	3862217													9.620953	0.040858	1.996629	0.198939	-0.948469	-0.246638	-0.004198	-0.252491	0.967590	-0.980003	-0.191456	-0.054212
141	3862383													9.628502	0.047632	1.981412	0.199064	-0.948485	-0.246474	-0.004294	-0.252349	0.967627	-0.979977	-0.191562	-0.054306
142	3862550													9.636974	0.041123	1.963806	0.199249	-0.948485	-0.246324	-0.004366	-0.252221	0.967660	-0.979939	-0.191730	-0.054396
143	3862717													9.639374	0.002739	1.978859	0.199429	-0.948509	-0.246086	-0.004410	-0.251997	0.967718	-0.979902	-0.191906	-0.054438
144	3862883													9.639935	0.013758	1.979556	0.199630	-0.948512	-0.245913	-0.004464	-0.251842	0.967758	-0.979861	-0.192095	-0.054510
145	3863050													9.645521	0.036302	1.951629	0.199825	-0.948495	-0.245818	-0.004506	-0.251765	0.967778	-0.979821	-0.192278	-0.054583
146	3863217													9.597755	0.011665	1.915535	0.199765	-0.948568	-0.245585	-0.004584	-0.251539	0.967836	-0.979833	-0.192214	-0.054597
147	3863383													9.657916	-0.041680	1.857519	0.199204	-0.948913	-0.244709	-0.004847	-0.250664	0.968062	-0.979946	-0.191655	-0.054533
148	3863550													9.623256	-0.011812	1.948688	0.198708	-0.949127	-0.244280	-0.004936	-0.250216	0.968177	-0.980046	-0.191179	-0.054405
149	3863717													9.626766	0.001830	1.996119	0.198495	-0.949238	-0.244024	-0.004898	-0.249936	0.968250	-0.980090	-0.190998	-0.054261
150	3863883													9.660584	-0.004713	2.018576	0.198531	-0.949248	-0.243954	-0.004813	-0.249850	0.968273	-0.980083	-0.191058	-0.054171
151	3864050													9.624667	0.006668	2.039966	0.198810	-0.949197	-0.243926	-0.004733	-0.249821	0.968280	-0.980027	-0.191350	-0.054159
152	3864217													9.653595	0.000633	2.079677	0.199230	-0.949094	-0.243982	-0.004636	-0.249883	0.968265	-0.979942	-0.191777	-0.054184
153	3864383													9.602365	-0.021121	2.098438	0.199674	-0.948989	-0.244030	-0.004678	-0.249966	0.968243	-0.979851	-0.192192	-0.054351
154	3864550													9.613612	-0.028011	2.051027	0.199977	-0.948923	-0.244039	-0.004647	-0.249985	0.968238	-0.979790	-0.192491	-0.054401
155	3864717													9.700150	0.057171	2.076859	0.199864	-0.948891	-0.244255	-0.004449	-0.250161	0.968194	-0.979814	-0.192420	-0.054220
156	3864883													9.577229	0.073660	2.113719	0.200075	-0.948833	-0.244306	-0.004272	-0.250190	0.968187	-0.979771	-0.192667	-0.054110
157	3865050													9.619761	0.018875	2.023654	0.200258	-0.948786	-0.244341	-0.004225	-0.250227	0.968178	-0.979734	-0.192853	-0.054118
158	3865217													9.672986	0.031896	2.085683	0.200474	-0.948746	-0.244317	-0.004251	-0.250220	0.968180	-0.979690	-0.193056	-0.054196
159	3865383													9.597791	0.088063	2.092353	0.200860	-0.948658	-0.244343	-0.004197	-0.250258	0.968170	-0.979611	-0.193441	-0.054248
160	3865550													9.598526	0.072127	2.072496	0.201314	-0.948593	-0.244220	-0.004143	-0.250147	0.968199	-0.979518	-0.193900	-0.054288
161	3865717													9.600440	0.020150	2.051548	0.201818	-0.948507	-0.244140	-0.004146	-0.250094	0.968213	-0.979414	-0.194390	-0.054406
162	3865883													9.531746	0.029848	2.038545	0.202168	-0.948440	-0.244110	-0.004206	-0.250095	0.968212	-0.979342	-0.194714	-0.054551
163	3866050													9.621468	0.003465	2.031200	0.202334	-0.948443	-0.243959	-0.004307	-0.249971	0.968244	-0.979307	-0.194858	-0.054662
164	3866217													9.630233	0.004810	2.011052	0.202522	-0.948441	-0.243811	-0.004417	-0.249853	0.968274	-0.979268	-0.195020	-0.054790
165	3866383													9.650963	0.002034	2.031664	0.202869	-0.948409	-0.243647	-0.004513	-0.249724	0.968307	-0.979195	-0.195340	-0.054942
166	3866550													9.640364	0.016148	2.045424	0.203263	-0.948340	-0.243588	-0.004626	-0.249709	0.968310	-0.979113	-0.195695	-0.055143
167	3866717													9.613134	-0.035527	1.983362	0.203626	-0.948310	-0.243403	-0.004848	-0.249585	0.968341	-0.979037	-0.195999	-0.055420
168	3866883													9.613813	-0.009890	1.981285	0.203992	-0.948260	-0.243291	-0.004994	-0.249522	0.968356	-0.978960	-0.196322	-0.055636
169	3867050													9.707294	0.042340	1.978709	0.204323	-0.948157	-0.243416	-0.005031	-0.249675	0.968317	-0.978891	-0.196625	-0.055785
170	3867217													9.612123	0.011376	2.006987	0.204629	-0.948065	-0.243514	-0.005067	-0.249801	0.968284	-0.978826	-0.196905	-0.055921
171	3867383													9.610250	0.030992	2.022644	0.204896	-0.947990	-0.243582	-0.005123	-0.249897	0.968259	-0.978770	-0.197145	-0.056059
172	3867550													9.618444	0.023861	2.026139	0.205194	-0.947908	-0.243651	-0.005166	-0.249994	0.968234	-0.978708	-0.197417	-0.056194
173	3867717													9.613309	0.050879	2.067334	0.205483	-0.947856	-0.243610	-0.005216	-0.249979	0.968237	-0.978647	-0.197686	-0.056311
174	3867883													9.621172	0.041473	2.089580	0.205791	-0.947829	-0.243457	-0.005283	-0.249854	0.968269	-0.978582	-0.197975	-0.056426
175	3868050													9.613847	0.014630	2.074043	0.206032	-0.947794	-0.243386	-0.005296	-0.249799	0.968283	-0.978531	-0.198208	-0.056486
176	3868217													9.630104	0.009949	2.111597	0.206284	-0.947738	-0.243391	-0.005326	-0.249825	0.968276	-0.978478	-0.198444	-0.056583
177	3868383													9.644917	-0.007024	2.083445	0.206495	-0.947719	-0.243286	-0.005370	-0.249739	0.968298	-0.978433	-0.198642	-0.056659
178	3868550													9.619284	-0.009799	2.118108	0.206717	-0.947731	-0.243052	-0.005430	-0.249525	0.968353	-0.978386	-0.198855	-0.056727
179	3868717													9.603801	0.007452	2.125738	0.206999	-0.947763	-0.242685	-0.005490	-0.249179	0.968442	-0.978326	-0.199134	-0.056783
180	3868883													9.608603	-0.002256	2.130632	0.207300	-0.947762	-0.242431	-0.005572	-0.248954	0.968499	-0.978261	-0.199419	-0.056889
181	3869050													9.599507	-0.010662	2.127648	0.207628	-0.947755	-0.242180	-0.005618	-0.248727	0.968557	-0.978192	-0.199739	-0.056967
182	3869217													9.601979	-0.010055	2.116170	0.207926	-0.947756	-0.241919	-0.005677	-0.248489	0.968618	-0.978128	-0.200028	-0.057048
183	3869383													9.610133	-0.027118	2.111068	0.208359	-0.947736	-0.241627	-0.005716	-0.248224	0.968686	-0.978036	-0.200453	-0.057137
184	3869550													9.617636	-0.018446	2.137968	0.208895	-0.947671	-0.241419	-0.005817	-0.248065	0.968726	-0.977921	-0.200958	-0.057332
185	3869717													9.605225	-0.004916	2.136228	0.209486	-0.947612	-0.241136	-0.005919	-0.247832	0.968785	-0.977794	-0.201520	-0.057527
186	3869883													9.612000	-0.009210	2.093670	0.209944	-0.947565	-0.240924	-0.006042	-0.247668	0.968826	-0.977695	-0.201943	-0.057722
187	3870050													9.622494	0.005294	2.141672	0.210398	-0.947479	-0.240866	-0.006214	-0.247672	0.968824	-0.977596	-0.202342	-0.057998
188	3870217													9.628321	-0.001566	2.132044	0.210698	-0.947472	-0.240631	-0.006518	-0.247513	0.968863	-0.977529	-0.202569	-0.058327
189	3870383													9.571154	-0.049825	2.061949	0.211005	-0.947490	-0.240291	-0.006846	-0.247253	0.968927	-0.977461	-0.202803	-0.058658
190	3870550													9.703815	-0.048472	2.018312	0.211126	-0.947468	-0.240269	-0.006919	-0.247253	0.968926	-0.977434	-0.202903	-0.058757
191	3870717													9.675208	0.079360	2.097642	0.211570	-0.947387	-0.240199	-0.006820	-0.247188	0.968944	-0.977339	-0.203361	-0.058759
192	3870883													9.556210	-0.052023	2.063070	0.212189	-0.947288	-0.240045	-0.006845	-0.247073	0.968973	-0.977205	-0.203962	-0.058911
193	3871050													9.642402	-0.029163	2.098558	0.212815	-0.947178	-0.239925	-0.006948	-0.247011	0.968988	-0.977068	-0.204549	-0.059149
194	3871217													9.587516	0.001765	2.159226	0.213397	-0.947054	-0.239897	-0.007000	-0.247029	0.968983	-0.976940	-0.205099	-0.059345
195	3871383													9.588811	0.052459	2.194541	0.214020	-0.946899	-0.239952	-0.006973	-0.247119	0.968960	-0.976804	-0.205704	-0.059491
196	3871550													9.575362	0.030667	2.227321	0.214580	-0.946815	-0.239785	-0.007040	-0.246997	0.968991	-0.976681	-0.206238	-0.059666
197	3871717													9.545607	-0.019881	2.159387	0.215103	-0.946737	-0.239622	-0.007201	-0.246897	0.969015	-0.976565	-0.206713	-0.059926
198	3871883													9.557631	-0.023867	2.201882	0.215550	-0.946660	-0.239526	-0.007399	-0.246868	0.969021	-0.976465	-0.207101	-0.060217
199	3872050													9.575494	-0.013549	2.181708	0.215949	-0.946610	-0.239365	-0.007563	-0.246763	0.969046	-0.976375	-0.207454	-0.060447
200	3872217													9.589840	-0.038202	2.223950	0.216495	-0.946525	-0.239206	-0.007636	-0.246651	0.969074	-0.976254	-0.207973	-0.060627
201	3872383													9.576651	-0.017368	2.213387	0.217016	-0.946451	-0.239030	-0.007683	-0.246514	0.969109	-0.976138	-0.208475	-0.060769
202	3872550													9.540037	-0.102865	2.161151	0.217489	-0.946380	-0.238879	-0.007832	-0.246421	0.969131	-0.976031	-0.208905	-0.061006
203	3872717													9.562716	-0.058838	2.223859	0.217932	-0.946277	-0.238884	-0.007969	-0.246484	0.969114	-0.975931	-0.209298	-0.061258
204	3872883													9.649629	-0.002904	2.138133	0.218260	-0.946160	-0.239047	-0.007868	-0.246650	0.969073	-0.975859	-0.209629	-0.061278
205	3873050													9.573808	-0.019109	2.170817	0.218822	-0.945970	-0.239286	-0.007737	-0.246903	0.969009	-0.975734	-0.210190	-0.061347
206	3873217													9.628962	-0.021980	2.188011	0.219353	-0.945799	-0.239477	-0.007692	-0.247124	0.968953	-0.975615	-0.210700	-0.061482
207	3873383													9.612762	-0.016633	2.218943	0.219957	-0.945674	-0.239413	-0.007736	-0.247107	0.968957	-0.975479	-0.211277	-0.061668
208	3873550													9.559523	0.016965	2.196808	0.220638	-0.945528	-0.239366	-0.007706	-0.247096	0.968960	-0.975325	-0.211945	-0.061805
209	3873717													9.569697	0.006374	2.193161	0.221238	-0.945416	-0.239252	-0.007633	-0.247003	0.968985	-0.975190	-0.212550	-0.061862
210	3873883													9.563992	-0.015431	2.250757	0.221719	-0.945319	-0.239189	-0.007565	-0.246955	0.968997	-0.975081	-0.213036	-0.061906
211	3874050													9.592765	-0.016030	2.249058	0.222118	-0.945225	-0.239193	-0.007502	-0.246971	0.968994	-0.974991	-0.213436	-0.061948
212	3874217													9.607564	-0.010494	2.224047	0.222532	-0.945171	-0.239023	-0.007417	-0.246805	0.969037	-0.974897	-0.213869	-0.061932
213	3874383													9.584267	-0.033298	2.242732	0.222966	-0.945090	-0.238937	-0.007304	-0.246720	0.969059	-0.974799	-0.214322	-0.061914
214	3874550													9.571102	-0.029997	2.230568	0.223449	-0.944983	-0.238911	-0.007165	-0.246694	0.969067	-0.974689	-0.214825	-0.061894
215	3874717													9.595792	-0.032653	2.224771	0.223950	-0.944878	-0.238856	-0.007019	-0.246638	0.969082	-0.974575	-0.215350	-0.061867
216	3874883													9.607597	-0.044966	2.207890	0.224499	-0.944737	-0.238900	-0.006884	-0.246689	0.969070	-0.974450	-0.215910	-0.061885
217	3875050													9.589713	-0.029771	2.233292	0.225112	-0.944573	-0.238971	-0.006734	-0.246769	0.969051	-0.974310	-0.216536	-0.061912
218	3875217													9.601362	-0.029194	2.260378	0.225846	-0.944383	-0.239028	-0.006565	-0.246837	0.969035	-0.974141	-0.217284	-0.061947
219	3875383													9.582175	-0.003075	2.324320	0.226627	-0.944233	-0.238880	-0.006438	-0.246708	0.969068	-0.973960	-0.218079	-0.061990
220	3875550													9.577852	-0.017075	2.331562	0.227377	-0.944108	-0.238664	-0.006334	-0.246512	0.969119	-0.973786	-0.218843	-0.062031
221	3875717													9.591993	-0.026667	2.313660	0.228080	-0.943957	-0.238591	-0.006256	-0.246466	0.969131	-0.973622	-0.219546	-0.062119
222	3875883													9.572626	0.021737	2.365446	0.228740	-0.943814	-0.238523	-0.006134	-0.246412	0.969146	-0.973468	-0.220219	-0.062154
223	3876050													9.574533	-0.042477	2.327432	0.229307	-0.943715	-0.238369	-0.006137	-0.246291	0.969177	-0.973335	-0.220777	-0.062267
224	3876217													9.507696	-0.051853	2.280087	0.229884	-0.943650	-0.238070	-0.006244	-0.246047	0.969238	-0.973198	-0.221326	-0.062454
225	3876383													9.575022	-0.030500	2.226866	0.230306	-0.943588	-0.237908	-0.006194	-0.245897	0.969276	-0.973098	-0.221757	-0.062476
226	3876550													9.578981	0.062742	2.270455	0.230965	-0.943455	-0.237797	-0.005885	-0.245755	0.969314	-0.972944	-0.222478	-0.062313
227	3876717													9.589240	-0.029462	2.265145	0.231823	-0.943337	-0.237432	-0.005595	-0.245370	0.969413	-0.972742	-0.223404	-0.062160
228	3876883													9.559015	-0.029887	2.302843	0.232696	-0.943169	-0.237245	-0.005409	-0.245193	0.969459	-0.972534	-0.224306	-0.062157
229	3877050													9.551731	0.010311	2.304677	0.233408	-0.943014	-0.237159	-0.005204	-0.245103	0.969483	-0.972365	-0.225051	-0.062117
230	3877217													9.520466	0.056819	2.339249	0.234209	-0.942856	-0.236999	-0.004996	-0.244944	0.969524	-0.972173	-0.225887	-0.062078
231	3877383													9.556929	0.011033	2.320183	0.234762	-0.942764	-0.236817	-0.004808	-0.244749	0.969575	-0.972041	-0.226481	-0.061990
232	3877550													9.497463	-0.123563	2.221559	0.234769	-0.942574	-0.237565	-0.004349	-0.245412	0.969409	-0.972042	-0.226554	-0.061714
233	3877717													9.521130	-0.094882	2.271401	0.234832	-0.942046	-0.239590	-0.003659	-0.247337	0.968923	-0.972029	-0.226657	-0.061529
234	3877883													9.571102	-0.006326	2.338567	0.235325	-0.941487	-0.241297	-0.003038	-0.248981	0.968504	-0.971912	-0.227180	-0.061452
235	3878050													9.556766	0.014805	2.392187	0.236236	-0.940974	-0.242405	-0.002606	-0.250079	0.968222	-0.971692	-0.228097	-0.061530
236	3878217													9.571152	0.116173	2.361942	0.237385	-0.940579	-0.242816	-0.002417	-0.250532	0.968105	-0.971413	-0.229227	-0.061746
237	3878384													9.556957	0.107973	2.318391	0.238602	-0.940390	-0.242356	-0.002715	-0.250209	0.968188	-0.971114	-0.230354	-0.062253
238	3878550													9.572865	0.096800	2.377493	0.239685	-0.940292	-0.241664	-0.003087	-0.249656	0.968330	-0.970846	-0.231348	-0.062741
239	3878717													9.623814	0.126444	2.406652	0.240391	-0.940150	-0.241518	-0.003272	-0.249598	0.968344	-0.970671	-0.231991	-0.063077
240	3878884													9.528374	0.114599	2.467628	0.241088	-0.939963	-0.241548	-0.003379	-0.249700	0.968317	-0.970497	-0.232634	-0.063376
241	3879050													9.511705	0.097783	2.505045	0.241784	-0.939796	-0.241502	-0.003568	-0.249745	0.968305	-0.970323	-0.233259	-0.063737
242	3879217													9.500452	0.113567	2.496185	0.242549	-0.939667	-0.241240	-0.003860	-0.249598	0.968342	-0.970132	-0.233939	-0.064166
243	3879384													9.437768	0.073572	2.478941	0.243341	-0.939581	-0.240774	-0.004070	-0.249223	0.968438	-0.969932	-0.234681	-0.064470
244	3879550													9.453293	0.034464	2.496246	0.243964	-0.939505	-0.240441	-0.004245	-0.248964	0.968503	-0.969775	-0.235259	-0.064726
245	3879717													9.493482	0.025045	2.511896	0.244581	-0.939403	-0.240214	-0.004333	-0.248795	0.968547	-0.969619	-0.235847	-0.064921
246	3879884													9.526748	0.029079	2.524640	0.245369	-0.939248	-0.240014	-0.004412	-0.248662	0.968580	-0.969420	-0.236601	-0.065158
247	3880050													9.539827	0.030810	2.526191	0.246283	-0.939123	-0.239569	-0.004558	-0.248302	0.968672	-0.969187	-0.237475	-0.065433
248	3880217													9.545450	0.015761	2.537748	0.247287	-0.939030	-0.238896	-0.004694	-0.247711	0.968823	-0.968931	-0.238455	-0.065664
249	3880384													9.535401	-0.003367	2.567283	0.248357	-0.938938	-0.238146	-0.004848	-0.247050	0.968991	-0.968656	-0.239502	-0.065908
250	3880550													9.521111	0.012294	2.519688	0.249425	-0.938894	-0.237202	-0.005083	-0.246210	0.969203	-0.968381	-0.240538	-0.066183
251	3880717													9.492835	-0.022364	2.550905	0.250486	-0.938858	-0.236226	-0.005332	-0.245339	0.969423	-0.968106	-0.241567	-0.066460
252	3880884													9.482074	-0.038293	2.573796	0.251595	-0.938793	-0.235304	-0.005564	-0.244524	0.969627	-0.967816	-0.242645	-0.066744
253	3881050													9.484244	-0.023219	2.546557	0.252731	-0.938714	-0.234399	-0.005742	-0.243714	0.969830	-0.967520	-0.243760	-0.066984
254	3881217													9.480107	-0.016053	2.575688	0.253959	-0.938578	-0.233617	-0.005892	-0.243033	0.970000	-0.967197	-0.244964	-0.067251
255	3881384													9.456096	-0.030747	2.543011	0.255142	-0.938443	-0.232869	-0.005991	-0.242370	0.970165	-0.966885	-0.246135	-0.067461
256	3881550													9.488204	-0.034055	2.518608	0.256279	-0.938266	-0.232331	-0.006005	-0.241899	0.970283	-0.966584	-0.247268	-0.067628
257	3881717													9.514275	-0.018576	2.517463	0.257408	-0.938081	-0.231829	-0.006046	-0.241472	0.970389	-0.966284	-0.248384	-0.067828
258	3881884													9.551103	-0.040222	2.547679	0.258442	-0.937906	-0.231389	-0.006083	-0.241101	0.970481	-0.966008	-0.249406	-0.068016
259	3882050													9.545975	-0.111166	2.532038	0.259452	-0.937756	-0.230863	-0.006221	-0.240667	0.970588	-0.965736	-0.250385	-0.068276
260	3882217													9.488951	-0.106187	2.449584	0.260292	-0.937628	-0.230437	-0.006291	-0.240306	0.970677	-0.965509	-0.251210	-0.068448
261	3882384													9.561181	-0.077038	2.490288	0.261103	-0.937434	-0.230309	-0.006070	-0.240175	0.970711	-0.965292	-0.252058	-0.068401
262	3882550													9.500143	-0.008919	2.514749	0.262075	-0.937188	-0.230208	-0.005753	-0.240059	0.970741	-0.965030	-0.253083	-0.068305
263	3882717													9.468366	-0.109764	2.548641	0.263084	-0.936919	-0.230150	-0.005462	-0.239996	0.970758	-0.964757	-0.254134	-0.068257
264	3882884													9.495001	-0.044504	2.564289	0.264072	-0.936651	-0.230109	-0.005300	-0.239983	0.970763	-0.964488	-0.255132	-0.068338
265	3883050													9.457610	0.034982	2.669129	0.265201	-0.936345	-0.230057	-0.005128	-0.239967	0.970767	-0.964180	-0.256269	-0.068441
266	3883217													9.446292	0.051245	2.674394	0.266342	-0.936061	-0.229897	-0.005004	-0.239852	0.970797	-0.963866	-0.257414	-0.068566
267	3883384													9.448689	0.015202	2.729981	0.267387	-0.935780	-0.229827	-0.004872	-0.239821	0.970805	-0.963577	-0.258461	-0.068684
268	3883550													9.438040	-0.003778	2.772382	0.268421	-0.935473	-0.229870	-0.004805	-0.239925	0.970780	-0.963290	-0.259473	-0.068896
269	3883717													9.438412	0.022050	2.763159	0.269496	-0.935189	-0.229769	-0.004817	-0.239903	0.970785	-0.962989	-0.260516	-0.069158
270	3883884													9.457412	-0.002273	2.779385	0.270792	-0.934877	-0.229512	-0.004882	-0.239751	0.970822	-0.962626	-0.261770	-0.069486
271	3884050													9.440912	0.016229	2.788419	0.272207	-0.934518	-0.229301	-0.004892	-0.239641	0.970849	-0.962226	-0.263150	-0.069804
272	3884217													9.410443	-0.014886	2.787755	0.273543	-0.934134	-0.229278	-0.004873	-0.239712	0.970832	-0.961847	-0.264447	-0.070123
273	3884384													9.397986	-0.062933	2.730053	0.274588	-0.933788	-0.229439	-0.004905	-0.239967	0.970769	-0.961550	-0.265436	-0.070472
274	3884550													9.463407	-0.015944	2.785061	0.275596	-0.933482	-0.229474	-0.004989	-0.240104	0.970734	-0.961261	-0.266386	-0.070828
275	3884717													9.459153	-0.025204	2.685009	0.276440	-0.933167	-0.229739	-0.004900	-0.240420	0.970657	-0.961019	-0.267202	-0.071034
276	3884884													9.431466	-0.072659	2.734291	0.277321	-0.932771	-0.230286	-0.004623	-0.240980	0.970519	-0.960766	-0.268081	-0.071141
277	3885050													9.356374	-0.177649	2.755435	0.277777	-0.932286	-0.231696	-0.004095	-0.242335	0.970184	-0.960637	-0.268547	-0.071133
278	3885217													9.445893	-0.080555	2.721438	0.278028	-0.931845	-0.233165	-0.003676	-0.243766	0.969827	-0.960566	-0.268782	-0.071199
279	3885384													9.470725	0.006327	2.719017	0.278424	-0.931497	-0.234081	-0.003571	-0.244721	0.969587	-0.960452	-0.269121	-0.071462
280	3885550													9.417514	0.018357	2.725555	0.278864	-0.931213	-0.234686	-0.003642	-0.245404	0.969414	-0.960324	-0.269480	-0.071826
281	3885717													9.446779	0.007160	2.752620	0.279280	-0.930946	-0.235248	-0.003675	-0.246031	0.969255	-0.960203	-0.269829	-0.072133
282	3885884													9.434913	0.044649	2.798097	0.279721	-0.930695	-0.235719	-0.003756	-0.246579	0.969115	-0.960074	-0.270197	-0.072469
283	3886050													9.429841	0.091052	2.811782	0.280186	-0.930462	-0.236083	-0.003934	-0.247045	0.968996	-0.959938	-0.270571	-0.072879
284	3886217													9.435410	0.122255	2.794890	0.280614	-0.930254	-0.236394	-0.004145	-0.247462	0.968889	-0.959812	-0.270904	-0.073297
285	3886384													9.422815	0.126272	2.823419	0.281018	-0.930077	-0.236614	-0.004334	-0.247777	0.968807	-0.959693	-0.271226	-0.073661
286	3886550													9.424632	0.103553	2.841049	0.281490	-0.929885	-0.236807	-0.004479	-0.248056	0.968735	-0.959554	-0.271629	-0.073990
287	3886717													9.420460	0.089356	2.848582	0.282155	-0.929671	-0.236854	-0.004639	-0.248204	0.968697	-0.959357	-0.272224	-0.074345
288	3886884													9.412308	0.054046	2.867881	0.282956	-0.929421	-0.236881	-0.004638	-0.248297	0.968673	-0.959122	-0.272993	-0.074568
289	3887050													9.366039	-0.006687	2.864503	0.283720	-0.929199	-0.236839	-0.004638	-0.248316	0.968668	-0.958896	-0.273732	-0.074762
290	3887217													9.382504	-0.087976	2.847633	0.284404	-0.928921	-0.237108	-0.004426	-0.248591	0.968598	-0.958694	-0.274424	-0.074812
291	3887384													9.410383	-0.088954	2.891771	0.285065	-0.928624	-0.237478	-0.004275	-0.248988	0.968497	-0.958499	-0.275070	-0.074948
292	3887550													9.425053	-0.024232	2.907036	0.285820	-0.928311	-0.237793	-0.004151	-0.249342	0.968407	-0.958274	-0.275803	-0.075120
293	3887717													9.415526	-0.034921	2.937224	0.286781	-0.928004	-0.237835	-0.004123	-0.249457	0.968377	-0.957987	-0.276732	-0.075366
294	3887884													9.402923	0.007302	2.923777	0.287769	-0.927695	-0.237846	-0.004068	-0.249533	0.968358	-0.957691	-0.277696	-0.075582
295	3888050													9.432447	0.011687	2.949742	0.288796	-0.927424	-0.237660	-0.004090	-0.249430	0.968384	-0.957382	-0.278693	-0.075827
296	3888217													9.407060	0.019223	2.907534	0.289686	-0.927206	-0.237427	-0.004281	-0.249316	0.968413	-0.957112	-0.279519	-0.076192
297	3888384													9.445396	0.043529	2.942240	0.290528	-0.927027	-0.237096	-0.004496	-0.249103	0.968467	-0.956856	-0.280300	-0.076539
298	3888550													9.438850	0.006079	2.902375	0.291387	-0.926870	-0.236655	-0.004793	-0.248802	0.968543	-0.956593	-0.281086	-0.076940
299	3888717													9.414640	-0.039291	2.852121	0.292322	-0.926686	-0.236221	-0.005054	-0.248504	0.968618	-0.956307	-0.281955	-0.077327
300	3888884													9.431974	-0.005646	2.847873	0.293346	-0.926411	-0.236031	-0.005059	-0.248394	0.968646	-0.955993	-0.282954	-0.077552
301	3889050													9.378174	0.035627	2.851456	0.294498	-0.926095	-0.235837	-0.004906	-0.248243	0.968685	-0.955639	-0.284119	-0.077651
302	3889217													9.383886	-0.061203	2.829998	0.295689	-0.925748	-0.235709	-0.004659	-0.248137	0.968714	-0.955273	-0.285340	-0.077684
303	3889384													9.443487	-0.046132	2.891136	0.296988	-0.925377	-0.235533	-0.004537	-0.248027	0.968742	-0.954871	-0.286636	-0.077859
304	3889550													9.362806	0.022790	2.963277	0.298358	-0.925001	-0.235278	-0.004332	-0.247816	0.968797	-0.954444	-0.288030	-0.077945
305	3889717													9.378867	0.013622	3.019862	0.299711	-0.924641	-0.234973	-0.004043	-0.247524	0.968873	-0.954021	-0.289432	-0.077924
306	3889884													9.353196	-0.021661	3.012172	0.300815	-0.924333	-0.234775	-0.003756	-0.247324	0.968926	-0.953675	-0.290586	-0.077871
307	3890050													9.346235	-0.035552	2.994291	0.301861	-0.923986	-0.234797	-0.003367	-0.247318	0.968929	-0.953346	-0.291692	-0.077767
308	3890217													9.375247	-0.028814	3.012949	0.302954	-0.923637	-0.234762	-0.003031	-0.247272	0.968941	-0.953000	-0.292833	-0.077711
309	3890384													9.355946	-0.042954	3.036901	0.304222	-0.923261	-0.234602	-0.002804	-0.247142	0.968975	-0.952597	-0.294125	-0.077775
310	3890550													9.339744	-0.039457	3.044297	0.305711	-0.922846	-0.234298	-0.002575	-0.246880	0.969043	-0.952121	-0.295644	-0.077850
311	3890717													9.337633	-0.025355	3.092503	0.307313	-0.922371	-0.234075	-0.002343	-0.246710	0.969086	-0.951606	-0.297265	-0.077978
312	3890884													9.322081	-0.028106	3.062895	0.308644	-0.921980	-0.233861	-0.002193	-0.246554	0.969127	-0.951175	-0.298602	-0.078119
313	3891050													9.371606	-0.037268	3.045293	0.309848	-0.921596	-0.233784	-0.002109	-0.246551	0.969128	-0.950784	-0.299789	-0.078337
314	3891217													9.348794	-0.035565	3.019417	0.310909	-0.921213	-0.233885	-0.001906	-0.246685	0.969094	-0.950438	-0.300854	-0.078453
315	3891384													9.378697	0.040462	3.050868	0.312115	-0.920761	-0.234061	-0.001572	-0.246868	0.969048	-0.950043	-0.302086	-0.078499
316	3891550													9.328343	0.022365	3.076940	0.313333	-0.920328	-0.234135	-0.001258	-0.246952	0.969027	-0.949642	-0.303334	-0.078536
317	3891717													9.315964	0.019652	3.087798	0.314639	-0.919866	-0.234197	-0.001026	-0.247057	0.969000	-0.949211	-0.304645	-0.078677
318	3891884													9.304813	0.057490	3.115788	0.315906	-0.919447	-0.234139	-0.000854	-0.247052	0.969002	-0.948790	-0.305914	-0.078831
319	3892050													9.296625	0.052723	3.122855	0.317158	-0.919055	-0.233983	-0.000664	-0.246935	0.969032	-0.948372	-0.307181	-0.078928
320	3892217													9.302700	0.062530	3.104237	0.318313	-0.918672	-0.233922	-0.000494	-0.246918	0.969036	-0.947986	-0.308341	-0.079051
321	3892384													9.311738	0.035544	3.179892	0.319535	-0.918288	-0.233761	-0.000331	-0.246802	0.969066	-0.947574	-0.309573	-0.079166
322	3892550													9.293506	0.045472	3.192070	0.320810	-0.917885	-0.233597	-0.000225	-0.246707	0.969090	-0.947144	-0.310841	-0.079353
323	3892717													9.294893	0.050173	3.192055	0.322126	-0.917447	-0.233508	-0.000092	-0.246686	0.969095	-0.946697	-0.312149	-0.079549
324	3892884													9.334635	0.033359	3.195473	0.323416	-0.917006	-0.233456	0.000076	-0.246691	0.969094	-0.946257	-0.313438	-0.079714
325	3893050													9.296197	0.035780	3.273370	0.324662	-0.916559	-0.233482	0.000327	-0.246746	0.969080	-0.945830	-0.314700	-0.079809
326	3893217													9.303677	0.069467	3.291795	0.325923	-0.916114	-0.233473	0.000477	-0.246798	0.969067	-0.945396	-0.315952	-0.080000
327	3893384													9.315459	0.063970	3.278710	0.327281	-0.915644	-0.233416	0.000603	-0.246818	0.969062	-0.944927	-0.317296	-0.080226
328	3893550													9.286006	0.049234	3.316002	0.328730	-0.915121	-0.233432	0.000804	-0.246898	0.969041	-0.944424	-0.318740	-0.080426
329	3893717													9.273093	0.045643	3.339218	0.330219	-0.914577	-0.233461	0.001085	-0.246967	0.969023	-0.943904	-0.320243	-0.080561
330	3893884													9.293235	0.083189	3.336987	0.331789	-0.914002	-0.233487	0.001388	-0.247035	0.969006	-0.943353	-0.321829	-0.080695
331	3894050													9.278614	0.068414	3.347516	0.333384	-0.913441	-0.233411	0.001643	-0.247011	0.969011	-0.942790	-0.323436	-0.080848
332	3894217													9.247910	0.088031	3.330666	0.335157	-0.912820	-0.233302	0.001836	-0.246990	0.969016	-0.942160	-0.325201	-0.081105
333	3894384													9.240233	0.042653	3.272978	0.336975	-0.912133	-0.233370	0.002147	-0.247122	0.968982	-0.941511	-0.327024	-0.081315
334	3894550													9.245063	0.049842	3.318419	0.338875	-0.911357	-0.233648	0.002565	-0.247446	0.968898	-0.940828	-0.328934	-0.081516
335	3894717													9.228113	0.050302	3.313918	0.340795	-0.910584	-0.233871	0.002991	-0.247711	0.968829	-0.940133	-0.330871	-0.081695
336	3894884													9.245661	0.051223	3.298121	0.342749	-0.909807	-0.234038	0.003286	-0.247966	0.968763	-0.939421	-0.332812	-0.082001
337	3895051													9.243816	0.070941	3.365629	0.344771	-0.909025	-0.234109	0.003489	-0.248158	0.968713	-0.938680	-0.334801	-0.082386
338	3895217													9.232644	0.106957	3.542299	0.346703	-0.908384	-0.233742	0.003564	-0.247920	0.968774	-0.937968	-0.336710	-0.082717
339	3895384													9.258890	0.051647	3.543642	0.348322	-0.908006	-0.232803	0.003408	-0.247128	0.968977	-0.937369	-0.338309	-0.082985
340	3895551													9.272596	0.051330	3.522485	0.349843	-0.907744	-0.231542	0.003232	-0.245989	0.969267	-0.936803	-0.339839	-0.083124
341	3895717													9.225966	0.095819	3.480081	0.351345	-0.907440	-0.230454	0.003382	-0.244916	0.969539	-0.936240	-0.341422	-0.082981
342	3895884													9.096569	0.085760	3.530479	0.353131	-0.907038	-0.229304	0.003558	-0.243791	0.969821	-0.935567	-0.343290	-0.082863
343	3896051													9.106518	-0.012338	3.521033	0.354903	-0.906582	-0.228369	0.003770	-0.242880	0.970049	-0.934895	-0.345134	-0.082782
344	3896217													9.157885	0.007373	3.583382	0.356689	-0.906083	-0.227567	0.004021	-0.242099	0.970243	-0.934214	-0.346990	-0.082711
345	3896384													9.057720	0.081172	3.627509	0.358310	-0.905538	-0.227187	0.004428	-0.241694	0.970342	-0.933592	-0.348690	-0.082592
346	3896551													9.084083	0.093478	3.662666	0.359706	-0.905023	-0.227036	0.004948	-0.241469	0.970396	-0.933052	-0.350181	-0.082380
347	3896717													9.096735	0.094327	3.685142	0.360876	-0.904554	-0.227046	0.005491	-0.241386	0.970414	-0.932598	-0.351445	-0.082144
348	3896884													9.089242	0.067072	3.684113	0.362022	-0.904089	-0.227075	0.005991	-0.241337	0.970423	-0.932150	-0.352675	-0.081953
349	3897051													9.082786	0.045977	3.665653	0.363320	-0.903591	-0.226986	0.006383	-0.241215	0.970451	-0.931643	-0.354033	-0.081871
350	3897217													9.107467	0.034837	3.689746	0.364796	-0.903014	-0.226915	0.006710	-0.241154	0.970464	-0.931063	-0.355544	-0.081913
351	3897384													9.093333	0.051431	3.778029	0.366371	-0.902393	-0.226847	0.006971	-0.241129	0.970468	-0.930443	-0.357132	-0.082052
352	3897551													9.088772	0.082687	3.811705	0.367816	-0.901871	-0.226586	0.007125	-0.240927	0.970517	-0.929871	-0.358586	-0.082191
353	3897717													9.119366	0.049713	3.729188	0.369054	-0.901424	-0.226349	0.007188	-0.240766	0.970557	-0.929380	-0.359815	-0.082376
354	3897884													9.115899	0.070450	3.726565	0.370425	-0.900914	-0.226141	0.007162	-0.240683	0.970577	-0.928835	-0.361145	-0.082703
355	3898051													9.137054	0.084622	3.627502	0.371754	-0.900416	-0.225944	0.007091	-0.240626	0.970592	-0.928304	-0.362424	-0.083069
356	3898217													9.094593	0.085997	3.648532	0.373307	-0.899791	-0.225870	0.007040	-0.240717	0.970570	-0.927681	-0.363911	-0.083527
357	3898384													9.112340	0.081676	3.626859	0.374849	-0.899139	-0.225916	0.006993	-0.240935	0.970516	-0.927059	-0.365377	-0.084027
358	3898551													9.085641	0.077973	3.658579	0.376385	-0.898434	-0.226168	0.006972	-0.241366	0.970409	-0.926437	-0.366824	-0.084582
359	3898717													9.075108	0.117574	3.701860	0.377786	-0.897755	-0.226526	0.006974	-0.241890	0.970279	-0.925867	-0.368137	-0.085122
360	3898884													9.115142	0.130669	3.702085	0.379052	-0.897130	-0.226885	0.007065	-0.242369	0.970159	-0.925348	-0.369343	-0.085532
361	3899051													9.082218	0.157479	3.675352	0.380191	-0.896569	-0.227198	0.007107	-0.242805	0.970049	-0.924881	-0.370419	-0.085941
362	3899217													9.119045	0.130012	3.683414	0.381287	-0.896042	-0.227443	0.007146	-0.243164	0.969959	-0.924429	-0.371457	-0.086313
363	3899384													9.116625	0.111797	3.705880	0.382450	-0.895463	-0.227769	0.007309	-0.243570	0.969856	-0.923947	-0.372586	-0.086609
364	3899551													9.093009	0.127284	3.673433	0.383633	-0.894892	-0.228022	0.007475	-0.243897	0.969772	-0.923455	-0.373741	-0.086878
365	3899717													9.122117	0.151569	3.709581	0.384780	-0.894326	-0.228308	0.007713	-0.244228	0.969687	-0.922976	-0.374878	-0.087076
366	3899884													9.073349	0.162753	3.738162	0.385896	-0.893831	-0.228364	0.007842	-0.244350	0.969655	-0.922509	-0.375977	-0.087284
367	3900051													9.080775	0.116210	3.713040	0.386842	-0.893410	-0.228410	0.008042	-0.244416	0.969637	-0.922111	-0.376933	-0.087366
368	3900217													9.088114	0.123444	3.759285	0.387835	-0.892969	-0.228453	0.008218	-0.244493	0.969616	-0.921692	-0.377928	-0.087485
369	3900384													9.074903	0.133899	3.799075	0.388922	-0.892474	-0.228538	0.008454	-0.244601	0.969587	-0.921232	-0.379026	-0.087585
370	3900551													9.068040	0.109565	3.785964	0.390100	-0.891918	-0.228702	0.008787	-0.244763	0.969543	-0.920731	-0.380228	-0.087645
371	3900717													9.056993	0.120399	3.814512	0.391337	-0.891319	-0.228925	0.009127	-0.244993	0.969482	-0.920202	-0.381483	-0.087740
372	3900884													9.049293	0.140066	3.884524	0.392583	-0.890715	-0.229141	0.009457	-0.245221	0.969421	-0.919668	-0.382746	-0.087846
373	3901051													9.087476	0.158083	3.882802	0.393833	-0.890149	-0.229196	0.009714	-0.245303	0.969398	-0.919130	-0.384008	-0.087962
374	3901217													9.016869	0.151904	3.883028	0.395022	-0.889613	-0.229228	0.010005	-0.245340	0.969385	-0.918617	-0.385222	-0.088015
375	3901384													9.008306	0.121582	3.919265	0.396150	-0.889071	-0.229385	0.010331	-0.245493	0.969343	-0.918128	-0.386375	-0.088067
376	3901551													9.012690	0.118010	3.910706	0.397361	-0.888483	-0.229572	0.010596	-0.245711	0.969285	-0.917601	-0.387588	-0.088222
377	3901717													8.950361	0.133910	3.952316	0.398571	-0.887886	-0.229784	0.010793	-0.245986	0.969213	-0.917074	-0.388780	-0.088460
378	3901884													8.983634	0.149035	3.950899	0.399785	-0.887323	-0.229848	0.010894	-0.246141	0.969173	-0.916544	-0.389965	-0.088737
379	3902051													8.973822	0.063450	3.980828	0.401012	-0.886776	-0.229823	0.010889	-0.246246	0.969146	-0.916008	-0.391142	-0.089092
380	3902217													9.032642	0.068545	3.907664	0.402133	-0.886280	-0.229775	0.010813	-0.246346	0.969122	-0.915517	-0.392200	-0.089480
381	3902384													8.961868	0.109216	3.972903	0.403363	-0.885672	-0.229965	0.010906	-0.246646	0.969044	-0.914975	-0.393385	-0.089828
382	3902551													8.998449	0.135239	4.009681	0.404612	-0.885041	-0.230200	0.011045	-0.246978	0.968958	-0.914422	-0.394595	-0.090155
383	3902717													8.989867	0.054520	4.065636	0.406052	-0.884304	-0.230495	0.011151	-0.247411	0.968846	-0.913782	-0.395972	-0.090601
384	3902884													8.957144	0.110377	4.112231	0.407498	-0.883550	-0.230836	0.011257	-0.247896	0.968721	-0.913137	-0.397351	-0.091071
385	3903051													8.908369	0.185590	4.111832	0.408724	-0.882901	-0.231149	0.011386	-0.248318	0.968612	-0.912587	-0.398527	-0.091441
386	3903217													8.933410	0.187972	4.133963	0.409855	-0.882307	-0.231414	0.011536	-0.248668	0.968520	-0.912078	-0.399623	-0.091740
387	3903384													8.918552	0.165731	4.083112	0.411038	-0.881664	-0.231767	0.011705	-0.249112	0.968404	-0.911543	-0.400764	-0.092075
388	3903551													8.875514	0.158984	4.049131	0.412241	-0.881027	-0.232054	0.011846	-0.249499	0.968303	-0.910998	-0.401923	-0.092417
389	3903717													8.872618	0.152969	4.064719	0.413459	-0.880405	-0.232247	0.011984	-0.249786	0.968227	-0.910444	-0.403105	-0.092726
390	3903884													8.926712	0.132963	4.066889	0.414713	-0.879752	-0.232486	0.012199	-0.250094	0.968145	-0.909871	-0.404338	-0.092985
391	3904051													8.955010	0.168096	4.133463	0.415939	-0.879091	-0.232795	0.012498	-0.250440	0.968052	-0.909307	-0.405560	-0.093180
392	3904217													8.981176	0.134731	4.113012	0.417207	-0.878396	-0.233149	0.012806	-0.250835	0.967945	-0.908721	-0.406820	-0.093401
393	3904384													8.998346	0.121923	4.154096	0.418593	-0.877678	-0.233369	0.012981	-0.251156	0.967859	-0.908081	-0.408169	-0.093739
394	3904551													8.993265	0.120094	4.159588	0.420077	-0.876934	-0.233501	0.013132	-0.251403	0.967793	-0.907393	-0.409614	-0.094093
395	3904717													8.962487	0.166206	4.153756	0.421662	-0.876133	-0.233649	0.013355	-0.251648	0.967727	-0.906655	-0.411174	-0.094410
396	3904884													8.931110	0.158017	4.130259	0.423419	-0.875280	-0.233671	0.013532	-0.251794	0.967686	-0.905833	-0.412899	-0.094770
397	3905051													8.903681	0.102032	4.152145	0.425412	-0.874294	-0.233741	0.013714	-0.252019	0.967625	-0.904896	-0.414844	-0.095222
398	3905217													8.858409	0.135769	4.181137	0.427423	-0.873275	-0.233881	0.013959	-0.252298	0.967549	-0.903944	-0.416818	-0.095648
399	3905384													8.876156	0.172653	4.185860	0.429358	-0.872327	-0.233875	0.014139	-0.252435	0.967510	-0.903024	-0.418716	-0.096051
400	3905551													8.899912	0.152863	4.150717	0.431199	-0.871458	-0.233726	0.014258	-0.252432	0.967510	-0.902144	-0.420522	-0.096424
401	3905717													8.895919	0.129956	4.186188	0.432943	-0.870616	-0.233641	0.014452	-0.252455	0.967501	-0.901306	-0.422249	-0.096716
402	3905884													8.877042	0.138631	4.221742	0.434611	-0.869789	-0.233624	0.014676	-0.252530	0.967478	-0.900499	-0.423905	-0.096988
403	3906051													8.882287	0.137336	4.249573	0.436235	-0.868972	-0.233639	0.014943	-0.252615	0.967451	-0.899709	-0.425527	-0.097215
404	3906217													8.856889	0.136671	4.275304	0.437838	-0.868145	-0.233715	0.015248	-0.252749	0.967412	-0.898925	-0.427133	-0.097425
405	3906384													8.857677	0.137789	4.298956	0.439484	-0.867261	-0.233905	0.015598	-0.252993	0.967342	-0.898115	-0.428780	-0.097659
406	3906551													8.837757	0.145406	4.338115	0.441159	-0.866336	-0.234181	0.015967	-0.253328	0.967249	-0.897287	-0.430449	-0.097925
407	3906717													8.812171	0.149438	4.456264	0.442897	-0.865385	-0.234416	0.016280	-0.253652	0.967158	-0.896425	-0.432168	-0.098253
408	3906884													8.787438	0.150787	4.534038	0.444591	-0.864431	-0.234730	0.016588	-0.254062	0.967046	-0.895580	-0.433833	-0.098615
409	3907051													8.799418	0.131160	4.496460	0.446109	-0.863543	-0.235117	0.016867	-0.254548	0.966913	-0.894820	-0.435314	-0.098991
410	3907217													8.799379	0.102493	4.524476	0.447462	-0.862679	-0.235717	0.017222	-0.255215	0.966731	-0.894137	-0.436635	-0.099342
411	3907384													8.783996	0.127404	4.469503	0.448588	-0.861784	-0.236847	0.017688	-0.256395	0.966410	-0.893564	-0.437709	-0.099773
412	3907551													8.699106	0.191061	4.456381	0.449792	-0.860641	-0.238713	0.018331	-0.258324	0.965884	-0.892945	-0.438823	-0.100415
413	3907717													8.619057	0.282684	4.498426	0.451105	-0.859321	-0.240982	0.019244	-0.260588	0.965258	-0.892263	-0.440070	-0.101015
414	3907884													8.654723	0.340850	4.544710	0.452504	-0.858174	-0.242441	0.019919	-0.262073	0.964842	-0.891540	-0.441425	-0.101495
415	3908051													8.741079	0.275873	4.491415	0.453854	-0.857242	-0.243215	0.020253	-0.262950	0.964597	-0.890846	-0.442712	-0.101979
416	3908217													8.729356	0.292896	4.459595	0.455193	-0.856373	-0.243774	0.020455	-0.263652	0.964401	-0.890158	-0.443974	-0.102496
417	3908384													8.703421	0.258782	4.525099	0.456487	-0.855526	-0.244324	0.020584	-0.264377	0.964200	-0.889492	-0.445174	-0.103075
418	3908551													8.697635	0.242085	4.456341	0.457606	-0.854779	-0.244845	0.020723	-0.265040	0.964015	-0.888914	-0.446213	-0.103570
419	3908717													8.602727	0.327284	4.600684	0.458776	-0.853995	-0.245390	0.020909	-0.265717	0.963824	-0.888306	-0.447311	-0.104049
420	3908884													8.685752	0.249463	4.565405	0.460026	-0.853271	-0.245571	0.020912	-0.266085	0.963723	-0.887659	-0.448473	-0.104563
421	3909051													8.684999	0.250174	4.619618	0.461362	-0.852484	-0.245796	0.020917	-0.266515	0.963604	-0.886966	-0.449711	-0.105129
422	3909217													8.668566	0.244975	4.671075	0.462705	-0.851703	-0.245978	0.020843	-0.266939	0.963488	-0.886267	-0.450938	-0.105762
423	3909384													8.642838	0.309206	4.683081	0.463944	-0.850978	-0.246156	0.020797	-0.267332	0.963380	-0.885620	-0.452074	-0.106329
424	3909551													8.659369	0.291218	4.677802	0.465054	-0.850306	-0.246382	0.020749	-0.267763	0.963261	-0.885039	-0.453081	-0.106881
425	3909717													8.636171	0.250980	4.622809	0.466144	-0.849639	-0.246624	0.020775	-0.268174	0.963147	-0.884465	-0.454088	-0.107357
426	3909884													8.617006	0.236380	4.619019	0.467315	-0.848968	-0.246719	0.020814	-0.268423	0.963076	-0.883846	-0.455195	-0.107767
427	3910051													8.646545	0.214423	4.591232	0.468530	-0.848331	-0.246607	0.020800	-0.268471	0.963063	-0.883203	-0.456354	-0.108141
428	3910217													8.683229	0.185147	4.602495	0.469777	-0.847660	-0.246540	0.020852	-0.268542	0.963042	-0.882539	-0.457556	-0.108480
429	3910384													8.703081	0.212452	4.641166	0.471097	-0.846902	-0.246625	0.020992	-0.268751	0.962981	-0.881832	-0.458835	-0.108829
430	3910551													8.700855	0.213749	4.659234	0.472500	-0.846053	-0.246857	0.021284	-0.269060	0.962888	-0.881074	-0.460219	-0.109124
431	3910717													8.706503	0.179306	4.658863	0.473929	-0.845207	-0.247015	0.021499	-0.269330	0.962808	-0.880301	-0.461613	-0.109472
432	3910884													8.721035	0.178324	4.621706	0.475536	-0.844307	-0.247004	0.021724	-0.269427	0.962776	-0.879428	-0.463201	-0.109781
433	3911051													8.680398	0.220919	4.649895	0.477334	-0.843282	-0.247039	0.022101	-0.269524	0.962740	-0.878444	-0.465008	-0.110016
434	3911217													8.663384	0.206365	4.633198	0.479285	-0.842131	-0.247187	0.022535	-0.269743	0.962669	-0.877370	-0.466963	-0.110306
435	3911384													8.628182	0.228397	4.712872	0.481334	-0.840926	-0.247306	0.023021	-0.269915	0.962609	-0.876235	-0.469030	-0.110560
436	3911551													8.635037	0.228041	4.748049	0.483411	-0.839757	-0.247226	0.023479	-0.269878	0.962608	-0.875078	-0.471140	-0.110745
437	3911718													8.621630	0.192621	4.733518	0.485481	-0.838589	-0.247137	0.023893	-0.269853	0.962605	-0.873921	-0.473231	-0.110972
438	3911884													8.598848	0.198247	4.719589	0.487559	-0.837392	-0.247105	0.024236	-0.269933	0.962574	-0.872754	-0.475300	-0.111314
439	3912051													8.599942	0.178162	4.753680	0.489673	-0.836167	-0.247070	0.024476	-0.270074	0.962528	-0.871562	-0.477372	-0.111782
440	3912218													8.609226	0.194597	4.760260	0.491756	-0.834959	-0.247021	0.024587	-0.270265	0.962472	-0.870386	-0.479375	-0.112375
441	3912384													8.575530	0.236370	4.765793	0.493770	-0.833779	-0.246988	0.024623	-0.270508	0.962403	-0.869244	-0.481287	-0.113039
442	3912551													8.571821	0.235355	4.818343	0.495570	-0.832740	-0.246891	0.024602	-0.270678	0.962355	-0.868220	-0.482988	-0.113653
443	3912718													8.556176	0.220072	4.803051	0.497237	-0.831729	-0.246944	0.024657	-0.270963	0.962274	-0.867264	-0.484568	-0.114225
444	3912884													8.503480	0.266407	4.853648	0.498842	-0.830760	-0.246972	0.024644	-0.271247	0.962194	-0.866342	-0.486069	-0.114837
445	3913051													8.504653	0.240391	4.850320	0.500272	-0.829905	-0.246953	0.024609	-0.271465	0.962134	-0.865518	-0.487406	-0.115383
446	3913218													8.480744	0.227854	4.899614	0.501562	-0.829108	-0.247012	0.024670	-0.271700	0.962066	-0.864770	-0.488630	-0.115820
447	3913384													8.471192	0.259547	4.971817	0.502733	-0.828382	-0.247068	0.024756	-0.271899	0.962007	-0.864087	-0.489750	-0.116185
448	3913551													8.466603	0.261775	5.023152	0.503791	-0.827712	-0.247158	0.024846	-0.272117	0.961943	-0.863468	-0.490759	-0.116525
449	3913718													8.392308	0.294622	5.028207	0.504700	-0.827110	-0.247319	0.025010	-0.272354	0.961872	-0.862932	-0.491642	-0.116771
450	3913884													8.356483	0.287178	5.072136	0.505474	-0.826618	-0.247383	0.025176	-0.272456	0.961839	-0.862474	-0.492413	-0.116909
451	3914051													8.343607	0.284200	5.013996	0.506097	-0.826239	-0.247374	0.025364	-0.272437	0.961839	-0.862103	-0.493059	-0.116923
452	3914218													8.348529	0.300279	5.068962	0.506538	-0.826005	-0.247257	0.025517	-0.272282	0.961879	-0.861840	-0.493537	-0.116844
453	3914384													8.375543	0.265275	5.070750	0.506849	-0.825874	-0.247056	0.025591	-0.272054	0.961942	-0.861655	-0.493882	-0.116755
454	3914551													8.333432	0.232643	5.018513	0.507027	-0.825855	-0.246754	0.025519	-0.271772	0.962023	-0.861552	-0.494069	-0.116720
455	3914718													8.419050	0.242917	5.017086	0.506993	-0.825958	-0.246480	0.025437	-0.271494	0.962104	-0.861575	-0.494049	-0.116636
456	3914884													8.364367	0.272238	5.084783	0.506779	-0.826138	-0.246318	0.025495	-0.271238	0.962175	-0.861699	-0.493889	-0.116395
457	3915051													8.416327	0.268773	5.070604	0.506465	-0.826376	-0.246162	0.025620	-0.270936	0.962256	-0.861880	-0.493656	-0.116048
458	3915218													8.454849	0.219101	5.099397	0.506118	-0.826596	-0.246138	0.025741	-0.270785	0.962296	-0.862080	-0.493371	-0.115771
459	3915384													8.406773	0.233864	5.083106	0.505814	-0.826769	-0.246180	0.025915	-0.270687	0.962319	-0.862253	-0.493134	-0.115492
460	3915551													8.402843	0.315516	5.138692	0.505512	-0.826938	-0.246235	0.026176	-0.270555	0.962349	-0.862423	-0.492924	-0.115123
461	3915718													8.413805	0.327883	5.109167	0.505152	-0.827139	-0.246296	0.026445	-0.270416	0.962380	-0.862625	-0.492662	-0.114728
462	3915884													8.425312	0.325951	5.097445	0.504755	-0.827378	-0.246311	0.026664	-0.270247	0.962422	-0.862851	-0.492355	-0.114347
463	3916051													8.386973	0.297447	5.029558	0.504330	-0.827646	-0.246278	0.026839	-0.270043	0.962474	-0.863094	-0.492014	-0.113978
464	3916218													8.397235	0.277057	4.973433	0.503856	-0.827968	-0.246167	0.026926	-0.269793	0.962542	-0.863368	-0.491611	-0.113643
465	3916384													8.429265	0.266905	4.960170	0.503304	-0.828320	-0.246113	0.027000	-0.269603	0.962593	-0.863687	-0.491122	-0.113328
466	3916551													8.457756	0.273355	4.984080	0.502677	-0.828697	-0.246125	0.027039	-0.269499	0.962621	-0.864051	-0.490542	-0.113064
467	3916718													8.517919	0.277979	4.989646	0.501885	-0.829136	-0.246262	0.027082	-0.269514	0.962616	-0.864510	-0.489791	-0.112810
468	3916884													8.523556	0.237265	4.952170	0.501016	-0.829597	-0.246478	0.027107	-0.269619	0.962586	-0.865013	-0.488952	-0.112595
469	3917051													8.553676	0.267845	4.953489	0.500186	-0.830041	-0.246671	0.027069	-0.269739	0.962553	-0.865495	-0.488132	-0.112451
470	3917218													8.554341	0.274653	4.916902	0.499332	-0.830482	-0.246915	0.027131	-0.269858	0.962518	-0.865986	-0.487315	-0.112217
471	3917384													8.524233	0.295861	4.918713	0.498635	-0.830824	-0.247173	0.027235	-0.269995	0.962477	-0.866384	-0.486656	-0.112001
472	3917551													8.519686	0.268758	4.820888	0.498081	-0.831107	-0.247337	0.027296	-0.270068	0.962454	-0.866701	-0.486132	-0.111830
473	3917718													8.560018	0.257086	4.833612	0.497555	-0.831365	-0.247528	0.027355	-0.270177	0.962422	-0.867001	-0.485629	-0.111686
474	3917884													8.543060	0.276363	4.843510	0.497045	-0.831611	-0.247727	0.027379	-0.270317	0.962382	-0.867293	-0.485130	-0.111591
475	3918051													8.532483	0.292687	4.844740	0.496562	-0.831864	-0.247848	0.027377	-0.270388	0.962362	-0.867570	-0.484658	-0.111490
476	3918218													8.553048	0.286997	4.833728	0.496213	-0.832057	-0.247899	0.027379	-0.270393	0.962361	-0.867769	-0.484323	-0.111392
477	3918384													8.564047	0.321118	4.861989	0.496027	-0.832184	-0.247844	0.027335	-0.270327	0.962381	-0.867877	-0.484142	-0.111341
478	3918551													8.600883	0.291990	4.856057	0.495931	-0.832276	-0.247729	0.027317	-0.270189	0.962420	-0.867932	-0.484061	-0.111260
479	3918718													8.585977	0.283983	4.833800	0.495951	-0.832314	-0.247559	0.027292	-0.270010	0.962471	-0.867922	-0.484095	-0.111196
480	3918884													8.596867	0.286315	4.878026	0.496058	-0.832292	-0.247422	0.027347	-0.269836	0.962518	-0.867859	-0.484231	-0.111093
481	3919051													8.584532	0.301935	4.857978	0.496179	-0.832220	-0.247418	0.027486	-0.269772	0.962532	-0.867785	-0.484389	-0.110981
482	3919218													8.542480	0.301889	4.863617	0.496323	-0.832147	-0.247376	0.027699	-0.269626	0.962567	-0.867696	-0.484596	-0.110772
483	3919384													8.576582	0.241541	4.783095	0.496511	-0.832035	-0.247374	0.027946	-0.269513	0.962591	-0.867581	-0.484850	-0.110564
484	3919551													8.618243	0.263698	4.881856	0.496686	-0.831901	-0.247473	0.028266	-0.269474	0.962593	-0.867470	-0.485102	-0.110330
485	3919718													8.535778	0.251430	4.925067	0.496729	-0.831827	-0.247637	0.028633	-0.269465	0.962584	-0.867433	-0.485234	-0.110033
486	3919884													8.457269	0.266962	4.885477	0.496803	-0.831699	-0.247920	0.029042	-0.269575	0.962541	-0.867377	-0.485393	-0.109772
487	3920051													8.437595	0.270903	4.887967	0.497035	-0.831457	-0.248264	0.029548	-0.269724	0.962484	-0.867227	-0.485724	-0.109494
488	3920218													8.438485	0.289953	4.886128	0.497429	-0.831142	-0.248530	0.029983	-0.269846	0.962437	-0.866986	-0.486196	-0.109310
489	3920384													8.507828	0.311092	4.923622	0.497969	-0.830771	-0.248689	0.030314	-0.269923	0.962405	-0.866665	-0.486787	-0.109230
490	3920551													8.544021	0.333844	4.931743	0.498478	-0.830421	-0.248837	0.030538	-0.270043	0.962364	-0.866364	-0.487316	-0.109252
491	3920718													8.508878	0.334140	4.947630	0.498959	-0.830131	-0.248843	0.030663	-0.270050	0.962358	-0.866083	-0.487807	-0.109290
492	3920884													8.553330	0.265645	4.917693	0.499391	-0.829936	-0.248627	0.030609	-0.269892	0.962404	-0.865836	-0.488226	-0.109378
493	3921051													8.435252	0.358125	4.951059	0.499887	-0.829687	-0.248460	0.030714	-0.269712	0.962451	-0.865546	-0.488748	-0.109342
494	3921218													8.476848	0.330994	4.920245	0.500404	-0.829433	-0.248265	0.030828	-0.269498	0.962507	-0.865243	-0.489296	-0.109288
495	3921384													8.553690	0.296282	4.926810	0.500847	-0.829224	-0.248073	0.030875	-0.269313	0.962558	-0.864985	-0.489753	-0.109282
496	3921551													8.446879	0.317508	4.974061	0.501282	-0.829017	-0.247885	0.031027	-0.269073	0.962620	-0.864727	-0.490235	-0.109160
497	3921718													8.447508	0.353351	5.032927	0.501663	-0.828845	-0.247689	0.031249	-0.268775	0.962696	-0.864498	-0.490689	-0.108934
498	3921884													8.434467	0.348024	4.997494	0.501955	-0.828706	-0.247564	0.031554	-0.268499	0.962763	-0.864318	-0.491075	-0.108626
499	3922051													8.414169	0.335822	5.012275	0.502242	-0.828553	-0.247494	0.031790	-0.268326	0.962804	-0.864143	-0.491428	-0.108424
500	3922218													8.420654	0.334955	5.025093	0.502461	-0.828429	-0.247463	0.032011	-0.268196	0.962832	-0.864007	-0.491707	-0.108239
501	3922384													8.365854	0.312879	4.958118	0.502599	-0.828390	-0.247315	0.032135	-0.267973	0.962890	-0.863922	-0.491895	-0.108062
502	3922551													8.428091	0.282832	4.935996	0.502665	-0.828404	-0.247133	0.032129	-0.267774	0.962946	-0.863884	-0.491980	-0.107985
503	3922718													8.467854	0.291733	4.981567	0.502581	-0.828490	-0.247015	0.032139	-0.267620	0.962988	-0.863932	-0.491919	-0.107874
504	3922884													8.444028	0.325693	4.955213	0.502397	-0.828618	-0.246959	0.032070	-0.267567	0.963005	-0.864042	-0.491731	-0.107851
505	3923051													8.427875	0.307753	5.000635	0.502156	-0.828800	-0.246840	0.031896	-0.267492	0.963032	-0.864188	-0.491466	-0.107887
506	3923218													8.439595	0.287437	4.936876	0.501778	-0.829074	-0.246688	0.031661	-0.267395	0.963067	-0.864417	-0.491056	-0.107924
507	3923384													8.445133	0.351806	4.891848	0.501384	-0.829345	-0.246576	0.031469	-0.267317	0.963095	-0.864652	-0.490640	-0.107929
508	3923551													8.528251	0.335874	4.867218	0.500982	-0.829612	-0.246499	0.031271	-0.267281	0.963111	-0.864893	-0.490209	-0.107960
509	3923718													8.519974	0.324611	4.938364	0.500393	-0.830011	-0.246351	0.031045	-0.267152	0.963154	-0.865242	-0.489604	-0.107913
510	3923884													8.498567	0.361990	4.886886	0.499687	-0.830493	-0.246158	0.030870	-0.266925	0.963223	-0.865656	-0.488909	-0.107742
511	3924051													8.544162	0.358878	4.948789	0.498891	-0.831053	-0.245885	0.030697	-0.266591	0.963321	-0.866121	-0.488140	-0.107489
512	3924218													8.500745	0.341277	4.943273	0.497953	-0.831693	-0.245621	0.030622	-0.266193	0.963433	-0.866663	-0.487266	-0.107084
513	3924384													8.577300	0.316118	4.931109	0.496947	-0.832385	-0.245316	0.030555	-0.265734	0.963562	-0.867243	-0.486335	-0.106622
514	3924551													8.557381	0.287997	4.936583	0.495899	-0.833099	-0.245011	0.030522	-0.265251	0.963696	-0.867844	-0.485374	-0.106110
515	3924718													8.539172	0.310046	4.898802	0.494906	-0.833771	-0.244733	0.030563	-0.264767	0.963828	-0.868409	-0.484484	-0.105552
516	3924884													8.527121	0.293724	4.870404	0.493933	-0.834438	-0.244427	0.030653	-0.264227	0.963973	-0.868960	-0.483630	-0.104932
517	3925051													8.506264	0.265706	4.896080	0.493019	-0.835031	-0.244245	0.030680	-0.263875	0.964069	-0.869478	-0.482797	-0.104476
518	3925218													8.469974	0.256667	4.885306	0.492110	-0.835598	-0.244140	0.030775	-0.263575	0.964148	-0.869989	-0.481980	-0.103992
519	3925384													8.505957	0.250805	4.800790	0.491365	-0.836074	-0.244012	0.030789	-0.263317	0.964218	-0.870410	-0.481296	-0.103643
520	3925551													8.544606	0.265238	4.789913	0.490708	-0.836481	-0.243937	0.030831	-0.263116	0.964271	-0.870779	-0.480696	-0.103324
521	3925718													8.546662	0.275689	4.818610	0.490065	-0.836869	-0.243898	0.030914	-0.262939	0.964317	-0.871137	-0.480118	-0.102986
522	3925884													8.535225	0.322934	4.823916	0.489481	-0.837194	-0.243957	0.030867	-0.262953	0.964315	-0.871468	-0.479544	-0.102869
523	3926051													8.513289	0.349415	4.814228	0.488977	-0.837518	-0.243852	0.030794	-0.262804	0.964358	-0.871753	-0.479058	-0.102715
524	3926218													8.604125	0.330237	4.812038	0.488505	-0.837861	-0.243622	0.030749	-0.262500	0.964442	-0.872019	-0.478625	-0.102469
525	3926384													8.583823	0.342870	4.854546	0.488017	-0.838247	-0.243272	0.030587	-0.262120	0.964550	-0.872298	-0.478158	-0.102280
526	3926551													8.587635	0.305382	4.829562	0.487487	-0.838677	-0.242853	0.030379	-0.261681	0.964676	-0.872601	-0.477645	-0.102088
527	3926718													8.533237	0.252436	4.815763	0.486925	-0.839158	-0.242318	0.030024	-0.261184	0.964822	-0.872928	-0.477071	-0.101982
528	3926884													8.604114	0.237516	4.722296	0.486193	-0.839764	-0.241688	0.029593	-0.260597	0.964994	-0.873350	-0.476326	-0.101849
529	3927051													8.499236	0.321690	4.755301	0.485393	-0.840336	-0.241307	0.029402	-0.260156	0.965119	-0.873801	-0.475557	-0.101570
530	3927218													8.583458	0.274531	4.771457	0.484413	-0.840984	-0.241017	0.029299	-0.259749	0.965232	-0.874348	-0.474633	-0.101186
531	3927384													8.613271	0.211435	4.773415	0.483380	-0.841649	-0.240771	0.029219	-0.259373	0.965335	-0.874923	-0.473659	-0.100784
532	3927551													8.549746	0.249614	4.825269	0.482322	-0.842299	-0.240620	0.029126	-0.259110	0.965409	-0.875510	-0.472646	-0.100442
533	3927718													8.548437	0.323714	4.793964	0.481165	-0.842978	-0.240559	0.029053	-0.258928	0.965460	-0.876149	-0.471534	-0.100096
534	3927884													8.545684	0.331027	4.792688	0.479898	-0.843679	-0.240632	0.029095	-0.258824	0.965486	-0.876842	-0.470336	-0.099662
535	3928051													8.548066	0.314773	4.798573	0.478590	-0.844413	-0.240663	0.029184	-0.258641	0.965532	-0.877554	-0.469117	-0.099139
536	3928218													8.560832	0.269719	4.754921	0.477297	-0.845146	-0.240657	0.029234	-0.258442	0.965584	-0.878256	-0.467906	-0.098647
537	3928385													8.571290	0.272903	4.719796	0.476091	-0.845842	-0.240599	0.029236	-0.258221	0.965643	-0.878910	-0.466768	-0.098207
538	3928551													8.599951	0.295237	4.709646	0.474832	-0.846565	-0.240544	0.029287	-0.257971	0.965709	-0.879589	-0.465595	-0.097700
539	3928718													8.624553	0.291094	4.725358	0.473560	-0.847266	-0.240583	0.029327	-0.257833	0.965744	-0.880273	-0.464394	-0.097252
540	3928885													8.575616	0.253807	4.635832	0.472239	-0.847970	-0.240702	0.029435	-0.257746	0.965764	-0.880979	-0.463157	-0.096758
541	3929051													8.611809	0.291017	4.667716	0.471006	-0.848650	-0.240722	0.029367	-0.257651	0.965792	-0.881641	-0.461963	-0.096433
542	3929218													8.659921	0.274544	4.590373	0.469794	-0.849339	-0.240659	0.029271	-0.257479	0.965840	-0.882291	-0.460790	-0.096101
543	3929385													8.651085	0.322027	4.602486	0.468525	-0.850076	-0.240529	0.029139	-0.257244	0.965907	-0.882969	-0.459561	-0.095754
544	3929551													8.743048	0.273994	4.572900	0.467173	-0.850849	-0.240427	0.028975	-0.257047	0.965965	-0.883691	-0.458239	-0.095432
545	3929718													8.672582	0.279071	4.609054	0.465706	-0.851655	-0.240418	0.028877	-0.256907	0.966005	-0.884468	-0.456817	-0.095050
546	3929885													8.643221	0.298093	4.592597	0.464261	-0.852478	-0.240298	0.028779	-0.256646	0.966077	-0.885231	-0.455427	-0.094617
547	3930051													8.640711	0.280944	4.537878	0.462835	-0.853303	-0.240119	0.028579	-0.256374	0.966155	-0.885984	-0.454033	-0.094272
548	3930218													8.822036	0.246066	4.452830	0.461424	-0.854142	-0.239853	0.028344	-0.256024	0.966255	-0.886727	-0.452651	-0.093926
549	3930385													8.889939	0.269317	4.511466	0.459674	-0.855120	-0.239728	0.028208	-0.255743	0.966333	-0.887639	-0.450961	-0.093437
550	3930551													8.825146	0.256538	4.566970	0.457700	-0.856180	-0.239721	0.028195	-0.255508	0.966396	-0.888660	-0.449078	-0.092806
551	3930718													8.800241	0.238938	4.497823	0.455776	-0.857218	-0.239676	0.028211	-0.255224	0.966470	-0.889647	-0.447256	-0.092142
552	3930885													8.746282	0.245519	4.490127	0.453915	-0.858188	-0.239737	0.028344	-0.255009	0.966523	-0.890594	-0.445515	-0.091428
553	3931051													8.725126	0.240900	4.497565	0.452175	-0.859094	-0.239781	0.028427	-0.254817	0.966571	-0.891476	-0.443876	-0.090801
554	3931218													8.756038	0.227885	4.391006	0.450652	-0.859897	-0.239769	0.028476	-0.254605	0.966626	-0.892245	-0.442439	-0.090252
555	3931385													8.779842	0.250074	4.404357	0.449265	-0.860627	-0.239755	0.028483	-0.254428	0.966672	-0.892945	-0.441121	-0.089792
556	3931551													8.785990	0.275624	4.398332	0.448059	-0.861268	-0.239709	0.028437	-0.254264	0.966717	-0.893551	-0.439963	-0.089434
557	3931718													8.786556	0.275492	4.392986	0.446979	-0.861845	-0.239651	0.028343	-0.254123	0.966756	-0.894095	-0.438912	-0.089160
558	3931885													8.809339	0.279343	4.407046	0.445990	-0.862373	-0.239596	0.028274	-0.253985	0.966795	-0.894591	-0.437955	-0.088892
559	3932051													8.813149	0.279078	4.381768	0.445041	-0.862872	-0.239563	0.028180	-0.253889	0.966823	-0.895067	-0.437027	-0.088675
560	3932218													8.789204	0.290060	4.465328	0.444205	-0.863344	-0.239413	0.028049	-0.253692	0.966878	-0.895486	-0.436208	-0.088475
561	3932385													8.779687	0.275793	4.367980	0.443462	-0.863811	-0.239108	0.027843	-0.253369	0.966969	-0.895861	-0.435471	-0.088309
562	3932551													8.796679	0.237995	4.305123	0.442770	-0.864301	-0.238617	0.027510	-0.252905	0.967100	-0.896213	-0.434768	-0.088202
563	3932718													8.837210	0.230003	4.287805	0.442059	-0.864804	-0.238114	0.027266	-0.252382	0.967243	-0.896571	-0.434071	-0.087988
564	3932885													8.772220	0.330232	4.307930	0.441369	-0.865248	-0.237779	0.027266	-0.251932	0.967361	-0.896911	-0.433446	-0.087603
565	3933051													8.838555	0.234511	4.311854	0.440696	-0.865656	-0.237543	0.027215	-0.251619	0.967444	-0.897244	-0.432814	-0.087329
566	3933218													8.825146	0.224752	4.322710	0.439987	-0.866109	-0.237208	0.027192	-0.251179	0.967559	-0.897593	-0.432163	-0.086964
567	3933385													8.843789	0.234430	4.331832	0.439194	-0.866553	-0.237052	0.027262	-0.250886	0.967633	-0.897978	-0.431441	-0.086564
568	3933551													8.793934	0.320591	4.406238	0.438266	-0.867049	-0.236959	0.027378	-0.250626	0.967697	-0.898428	-0.430596	-0.086103
569	3933718													8.800692	0.269484	4.383868	0.437260	-0.867597	-0.236812	0.027544	-0.250276	0.967783	-0.898913	-0.429695	-0.085539
570	3933885													8.825277	0.260102	4.376842	0.436140	-0.868180	-0.236739	0.027721	-0.249992	0.967851	-0.899452	-0.428681	-0.084965
571	3934051													8.789673	0.238111	4.332712	0.434852	-0.868844	-0.236672	0.027959	-0.249668	0.967928	-0.900068	-0.427522	-0.084277
572	3934218													8.794128	0.237021	4.323540	0.433558	-0.869496	-0.236653	0.028237	-0.249381	0.967994	-0.900683	-0.426363	-0.083569
573	3934385													8.835004	0.239162	4.350340	0.432245	-0.870111	-0.236795	0.028554	-0.249255	0.968017	-0.901304	-0.425182	-0.082894
574	3934551													8.750511	0.251715	4.330859	0.430843	-0.870736	-0.237051	0.028789	-0.249286	0.968002	-0.901968	-0.423881	-0.082335
575	3934718													8.789271	0.193812	4.260817	0.429454	-0.871336	-0.237367	0.028942	-0.249425	0.967962	-0.902625	-0.422565	-0.081898
576	3934885													8.847192	0.222957	4.207852	0.428062	-0.871956	-0.237603	0.029058	-0.249493	0.967941	-0.903282	-0.421243	-0.081461
577	3935051													8.902061	0.314722	4.195004	0.426618	-0.872532	-0.238088	0.029250	-0.249797	0.967856	-0.903959	-0.419869	-0.081047
578	3935218													8.890198	0.263614	4.175050	0.425142	-0.873128	-0.238542	0.029386	-0.250091	0.967776	-0.904650	-0.418452	-0.080666
579	3935385													8.875920	0.258134	4.193501	0.423656	-0.873720	-0.239017	0.029443	-0.250445	0.967683	-0.905345	-0.417002	-0.080378
580	3935551													8.872122	0.303637	4.134017	0.422072	-0.874376	-0.239419	0.029447	-0.250733	0.967608	-0.906084	-0.415450	-0.080080
581	3935718													8.868612	0.308238	4.113597	0.420395	-0.875111	-0.239685	0.029373	-0.250897	0.967568	-0.906865	-0.413801	-0.079771
582	3935885													8.886371	0.311125	4.141726	0.418693	-0.875881	-0.239850	0.029249	-0.250971	0.967553	-0.907657	-0.412123	-0.079461
583	3936051													8.900442	0.295831	4.140868	0.416836	-0.876745	-0.239927	0.029040	-0.250972	0.967559	-0.908518	-0.410281	-0.079154
584	3936218													8.928006	0.267211	4.097082	0.414876	-0.877673	-0.239934	0.028793	-0.250903	0.967584	-0.909422	-0.408336	-0.078823
585	3936385													8.920447	0.269100	4.045085	0.412865	-0.878625	-0.239918	0.028556	-0.250800	0.967618	-0.910345	-0.406346	-0.078456
586	3936551													8.969069	0.268458	4.024945	0.410817	-0.879575	-0.239953	0.028295	-0.250761	0.967636	-0.911279	-0.404311	-0.078129
587	3936718													8.953764	0.273238	4.079771	0.408707	-0.880542	-0.240010	0.028168	-0.250682	0.967660	-0.912231	-0.402250	-0.077652
588	3936885													8.958466	0.252905	4.029834	0.406479	-0.881560	-0.240057	0.027959	-0.250617	0.967683	-0.913232	-0.400054	-0.077222
589	3937051													8.978969	0.255959	3.986526	0.404171	-0.882596	-0.240147	0.027852	-0.250550	0.967703	-0.914259	-0.397806	-0.076683
590	3937218													8.928315	0.263187	3.991628	0.401875	-0.883591	-0.240340	0.027705	-0.250614	0.967690	-0.915275	-0.395549	-0.076235
591	3937385													8.952050	0.234346	3.898448	0.399666	-0.884547	-0.240506	0.027581	-0.250649	0.967685	-0.916246	-0.393385	-0.075779
592	3937551													9.039078	0.211115	3.944473	0.397480	-0.885440	-0.240845	0.027532	-0.250843	0.967636	-0.917198	-0.391247	-0.075327
593	3937718													9.012991	0.187469	3.912294	0.394956	-0.886395	-0.241482	0.027638	-0.251269	0.967523	-0.918284	-0.388803	-0.074742
594	3937885													9.055466	0.213548	3.914100	0.392183	-0.887347	-0.242502	0.027772	-0.252080	0.967308	-0.919468	-0.386096	-0.074217
595	3938051													9.039725	0.269419	3.973196	0.389509	-0.888284	-0.243381	0.027963	-0.252724	0.967134	-0.920598	-0.383513	-0.073599
596	3938218													9.059402	0.235447	3.893403	0.386925	-0.889203	-0.244146	0.028088	-0.253280	0.966985	-0.921683	-0.381008	-0.073025
597	3938385													9.077342	0.197306	3.803975	0.384477	-0.890093	-0.244768	0.028031	-0.253770	0.966858	-0.922709	-0.378596	-0.072618
598	3938551													9.119071	0.231694	3.712917	0.382174	-0.890929	-0.245333	0.028011	-0.254195	0.966747	-0.923666	-0.376337	-0.072191
599	3938718													9.031012	0.338454	3.737894	0.380123	-0.891673	-0.245817	0.028027	-0.254540	0.966656	-0.924511	-0.374337	-0.071766
600	3938885													9.084220	0.263421	3.720470	0.378295	-0.892351	-0.246176	0.027923	-0.254818	0.966586	-0.925264	-0.372528	-0.071479
601	3939051													9.126994	0.275219	3.682203	0.376387	-0.893064	-0.246515	0.027699	-0.255116	0.966514	-0.926049	-0.370611	-0.071285
602	3939218													9.072806	0.285733	3.754708	0.374408	-0.893797	-0.246873	0.027431	-0.255445	0.966434	-0.926858	-0.368613	-0.071123
603	3939385													9.081544	0.319270	3.711452	0.372445	-0.894558	-0.247084	0.027120	-0.255635	0.966393	-0.927658	-0.366629	-0.070950
604	3939551													9.119440	0.307238	3.715053	0.370511	-0.895314	-0.247254	0.026808	-0.255781	0.966363	-0.928441	-0.364676	-0.070768
605	3939718													9.087436	0.281346	3.688334	0.368540	-0.896100	-0.247352	0.026425	-0.255875	0.966349	-0.929236	-0.362675	-0.070620
606	3939885													9.094458	0.243887	3.631305	0.366451	-0.896945	-0.247392	0.025996	-0.255915	0.966350	-0.930074	-0.360551	-0.070464
607	3940051													9.101694	0.239100	3.621671	0.364256	-0.897820	-0.247460	0.025565	-0.255975	0.966345	-0.930948	-0.358324	-0.070288
608	3940218													9.115228	0.234253	3.587104	0.362082	-0.898674	-0.247551	0.025125	-0.256066	0.966333	-0.931807	-0.356112	-0.070138
609	3940385													9.136798	0.257819	3.585277	0.359949	-0.899475	-0.247753	0.024738	-0.256257	0.966292	-0.932644	-0.353944	-0.069988
610	3940551													9.132346	0.196700	3.565418	0.357731	-0.900307	-0.247941	0.024329	-0.256436	0.966255	-0.933508	-0.351692	-0.069832
611	3940718													9.187156	0.189828	3.527948	0.355278	-0.901233	-0.248106	0.023876	-0.256586	0.966226	-0.934456	-0.349203	-0.069642
612	3940885													9.203260	0.204921	3.486788	0.352635	-0.902132	-0.248607	0.023606	-0.257013	0.966120	-0.935463	-0.346557	-0.069336
613	3941051													9.182523	0.238266	3.485675	0.350058	-0.903001	-0.249095	0.023351	-0.257425	0.966016	-0.936437	-0.343978	-0.069027
614	3941218													9.178291	0.196147	3.430140	0.347512	-0.903851	-0.249578	0.023026	-0.257861	0.965908	-0.937393	-0.341411	-0.068798
615	3941385													9.177119	0.204824	3.419976	0.345033	-0.904676	-0.250026	0.022567	-0.258312	0.965798	-0.938319	-0.338874	-0.068711
616	3941551													9.191361	0.218814	3.375378	0.342543	-0.905529	-0.250363	0.022106	-0.258643	0.965720	-0.939242	-0.336335	-0.068579
617	3941718													9.218000	0.201811	3.373557	0.340032	-0.906401	-0.250632	0.021621	-0.258907	0.965660	-0.940165	-0.333774	-0.068439
618	3941885													9.251530	0.167991	3.339098	0.337536	-0.907266	-0.250874	0.021122	-0.259148	0.965607	-0.941076	-0.331226	-0.068308
619	3942051													9.254775	0.155689	3.331911	0.335060	-0.908111	-0.251134	0.020632	-0.259405	0.965548	-0.941971	-0.328698	-0.068180
620	3942218													9.259902	0.143440	3.293004	0.332502	-0.908942	-0.251529	0.020225	-0.259770	0.965459	-0.942886	-0.326104	-0.067990
621	3942385													9.271023	0.172677	3.264046	0.329931	-0.909775	-0.251902	0.019791	-0.260119	0.965374	-0.943798	-0.323492	-0.067816
622	3942551													9.295912	0.160516	3.222378	0.327527	-0.910577	-0.252143	0.019315	-0.260354	0.965320	-0.944644	-0.321039	-0.067685
623	3942718													9.295197	0.152324	3.224880	0.325169	-0.911356	-0.252379	0.018915	-0.260561	0.965272	-0.945467	-0.318650	-0.067488
624	3942885													9.299151	0.132124	3.192543	0.322791	-0.912131	-0.252632	0.018528	-0.260780	0.965221	-0.946289	-0.316246	-0.067277
625	3943051													9.321184	0.132844	3.139237	0.320288	-0.912932	-0.252923	0.018153	-0.261024	0.965162	-0.947146	-0.313721	-0.067030
626	3943218													9.321754	0.139356	3.117064	0.317735	-0.913747	-0.253203	0.017795	-0.261248	0.965108	-0.948013	-0.311154	-0.066747
627	3943385													9.345220	0.130465	3.114927	0.315269	-0.914488	-0.253608	0.017501	-0.261588	0.965021	-0.948841	-0.308680	-0.066466
628	3943551													9.347713	0.146410	3.104609	0.312946	-0.915194	-0.253938	0.017188	-0.261867	0.964951	-0.949615	-0.306343	-0.066220
629	3943718													9.365529	0.132499	3.084485	0.310720	-0.915880	-0.254199	0.016823	-0.262096	0.964895	-0.950352	-0.304089	-0.066031
630	3943885													9.330009	0.123486	3.057787	0.308409	-0.916534	-0.254654	0.016444	-0.262527	0.964784	-0.951112	-0.301735	-0.065895
631	3944051													9.374516	0.101398	3.059872	0.306101	-0.917140	-0.255258	0.016184	-0.263076	0.964639	-0.951862	-0.299408	-0.065685
632	3944218													9.381350	0.085371	3.001944	0.303924	-0.917708	-0.255817	0.015941	-0.263583	0.964505	-0.952563	-0.297214	-0.065480
633	3944385													9.391475	0.067808	2.935021	0.301858	-0.918291	-0.256171	0.015591	-0.263914	0.964420	-0.953225	-0.295112	-0.065348
634	3944551													9.409139	0.079697	2.906238	0.299796	-0.918849	-0.256590	0.015378	-0.264272	0.964325	-0.953879	-0.293047	-0.065098
635	3944718													9.378469	0.147286	2.998240	0.297945	-0.919312	-0.257089	0.015365	-0.264667	0.964217	-0.954459	-0.291234	-0.064731
636	3944885													9.352500	0.104420	2.909804	0.296123	-0.919737	-0.257673	0.015347	-0.265156	0.964083	-0.955026	-0.289442	-0.064404
637	3945052													9.492862	0.097867	2.921277	0.294327	-0.920172	-0.258177	0.015268	-0.265581	0.963968	-0.955583	-0.287664	-0.064119
638	3945218													9.416734	0.156590	2.923410	0.292648	-0.920574	-0.258653	0.015162	-0.265994	0.963855	-0.956100	-0.285992	-0.063885
639	3945385													9.389151	0.217794	2.937978	0.290979	-0.921058	-0.258810	0.015024	-0.266084	0.963833	-0.956611	-0.284344	-0.063587
640	3945552													9.394768	0.172623	2.919594	0.289345	-0.921548	-0.258897	0.014869	-0.266107	0.963829	-0.957109	-0.282729	-0.063295
641	3945718													9.367946	0.139521	2.842619	0.287665	-0.922001	-0.259158	0.014706	-0.266312	0.963775	-0.957618	-0.281056	-0.063050
642	3945885													9.391915	0.133228	2.840986	0.285979	-0.922483	-0.259308	0.014499	-0.266413	0.963750	-0.958126	-0.279372	-0.062814
643	3946052													9.424954	0.122919	2.834559	0.284456	-0.922985	-0.259198	0.014217	-0.266276	0.963792	-0.958584	-0.277841	-0.062622
644	3946218													9.426957	0.105216	2.842751	0.283104	-0.923462	-0.258979	0.013923	-0.266041	0.963861	-0.958988	-0.276479	-0.062460
645	3946385													9.414307	0.126358	2.896245	0.281834	-0.923886	-0.258853	0.013700	-0.265887	0.963907	-0.959365	-0.275208	-0.062278
646	3946552													9.426332	0.072922	2.872495	0.280473	-0.924331	-0.258740	0.013389	-0.265766	0.963945	-0.959768	-0.273825	-0.062165
647	3946718													9.454197	0.094672	2.830216	0.279045	-0.924800	-0.258609	0.013135	-0.265606	0.963992	-0.960188	-0.272394	-0.061969
648	3946885													9.470559	0.152604	2.805227	0.277555	-0.925264	-0.258553	0.012947	-0.265501	0.964024	-0.960623	-0.270917	-0.061712
649	3947052													9.422883	0.087606	2.757438	0.276143	-0.925695	-0.258524	0.012832	-0.265408	0.964051	-0.961031	-0.269533	-0.061412
650	3947218													9.394152	0.058040	2.751013	0.274795	-0.926075	-0.258597	0.012666	-0.265441	0.964044	-0.961419	-0.268190	-0.061212
651	3947385													9.363700	0.082526	2.637474	0.273280	-0.926438	-0.258903	0.012510	-0.265702	0.963974	-0.961853	-0.266673	-0.061021
652	3947552													9.395717	0.115081	2.675300	0.271788	-0.926783	-0.259238	0.012373	-0.265991	0.963896	-0.962278	-0.265183	-0.060826
653	3947718													9.422704	0.123704	2.638247	0.270264	-0.927169	-0.259450	0.012217	-0.266154	0.963853	-0.962709	-0.263665	-0.060604
654	3947885													9.506854	0.101392	2.648212	0.268862	-0.927555	-0.259526	0.012019	-0.266196	0.963844	-0.963104	-0.262261	-0.060421
655	3948052													9.506179	0.115703	2.608157	0.267590	-0.927915	-0.259556	0.011773	-0.266211	0.963843	-0.963461	-0.260971	-0.060311
656	3948218													9.511533	0.102885	2.606737	0.266297	-0.928302	-0.259501	0.011472	-0.266151	0.963863	-0.963823	-0.259651	-0.060226
657	3948385													9.499959	0.083959	2.583648	0.264927	-0.928695	-0.259499	0.011249	-0.266120	0.963874	-0.964203	-0.258275	-0.060055
658	3948552													9.565413	0.102389	2.588202	0.263563	-0.929051	-0.259612	0.011117	-0.266184	0.963858	-0.964578	-0.256924	-0.059829
659	3948718													9.524184	0.128845	2.582583	0.262277	-0.929387	-0.259712	0.010979	-0.266242	0.963844	-0.964930	-0.255645	-0.059626
660	3948885													9.523613	0.105640	2.602453	0.261118	-0.929710	-0.259724	0.010791	-0.266230	0.963849	-0.965247	-0.254481	-0.059485
661	3949052													9.492303	0.117521	2.545086	0.259943	-0.930088	-0.259548	0.010417	-0.266071	0.963897	-0.965568	-0.253262	-0.059475
662	3949218													9.500818	0.078420	2.534659	0.258706	-0.930490	-0.259345	0.010045	-0.265879	0.963954	-0.965904	-0.251986	-0.059438
663	3949385													9.518986	0.036584	2.526476	0.257531	-0.930854	-0.259208	0.009757	-0.265738	0.963996	-0.966221	-0.250788	-0.059353
664	3949552													9.513467	0.059096	2.513798	0.256349	-0.931160	-0.259278	0.009573	-0.265783	0.963985	-0.966537	-0.249599	-0.059219
665	3949718													9.509802	0.078405	2.501806	0.255254	-0.931469	-0.259250	0.009376	-0.265735	0.964001	-0.966829	-0.248495	-0.059097
666	3949885													9.517350	0.051478	2.467881	0.254182	-0.931778	-0.259193	0.009198	-0.265654	0.964025	-0.967113	-0.247422	-0.058954
667	3950052													9.513067	0.057914	2.459177	0.253049	-0.932120	-0.259073	0.008992	-0.265512	0.964066	-0.967412	-0.246286	-0.058806
668	3950218													9.552611	0.050524	2.457077	0.251948	-0.932447	-0.258969	0.008795	-0.265385	0.964102	-0.967701	-0.245182	-0.058662
669	3950385													9.534263	0.009518	2.421787	0.251021	-0.932768	-0.258713	0.008407	-0.265159	0.964168	-0.967945	-0.244201	-0.058719
670	3950552													9.521003	-0.033711	2.377181	0.250142	-0.933103	-0.258357	0.008032	-0.264831	0.964261	-0.968176	-0.243277	-0.058751
671	3950718													9.573185	0.033821	2.403057	0.249105	-0.933333	-0.258526	0.008048	-0.264936	0.964232	-0.968443	-0.242276	-0.058486
672	3950885													9.510168	0.107356	2.486736	0.248453	-0.933477	-0.258633	0.008185	-0.264972	0.964221	-0.968609	-0.241680	-0.058192
673	3951052													9.466561	0.026464	2.466395	0.247832	-0.933631	-0.258675	0.008184	-0.264978	0.964220	-0.968769	-0.241081	-0.058029
674	3951218													9.586915	0.018997	2.493731	0.247128	-0.933830	-0.258631	0.008034	-0.264926	0.964235	-0.968949	-0.240368	-0.057969
675	3951385													9.523911	0.055728	2.495901	0.246477	-0.933994	-0.258659	0.007965	-0.264932	0.964234	-0.969116	-0.239722	-0.057861
676	3951552													9.486708	0.112481	2.533836	0.245764	-0.934172	-0.258694	0.007984	-0.264919	0.964238	-0.969297	-0.239040	-0.057649
677	3951718													9.508694	0.069199	2.509120	0.244948	-0.934374	-0.258738	0.007919	-0.264931	0.964235	-0.969504	-0.238236	-0.057495
678	3951885													9.499079	0.021022	2.432302	0.244116	-0.934573	-0.258808	0.007688	-0.265009	0.964215	-0.969716	-0.237370	-0.057508
679	3952052													9.462441	0.015533	2.428057	0.243180	-0.934829	-0.258764	0.007390	-0.264979	0.964226	-0.969953	-0.236392	-0.057529
680	3952218													9.520532	0.002824	2.404180	0.242276	-0.935104	-0.258616	0.007161	-0.264827	0.964269	-0.970181	-0.235471	-0.057465
681	3952385													9.552547	0.022026	2.375970	0.241420	-0.935305	-0.258691	0.007020	-0.264886	0.964254	-0.970395	-0.234606	-0.057382
682	3952552													9.525175	0.007657	2.414880	0.240633	-0.935486	-0.258768	0.006840	-0.264961	0.964235	-0.970592	-0.233797	-0.057359
683	3952718													9.538142	-0.001695	2.494997	0.239848	-0.935758	-0.258515	0.006504	-0.264733	0.964300	-0.970789	-0.232966	-0.057410
684	3952885													9.542847	-0.044853	2.512009	0.238799	-0.936198	-0.257891	0.006182	-0.264103	0.964475	-0.971049	-0.231910	-0.057280
685	3953052													9.564021	0.006286	2.537776	0.237623	-0.936640	-0.257373	0.006091	-0.263520	0.964635	-0.971338	-0.230787	-0.056913
686	3953218													9.502504	-0.040516	2.492501	0.236224	-0.937137	-0.256849	0.006073	-0.262901	0.964804	-0.971680	-0.229470	-0.056412
687	3953385													9.523930	-0.062222	2.424512	0.234612	-0.937669	-0.256386	0.006072	-0.262328	0.964960	-0.972070	-0.227948	-0.055852
688	3953552													9.479828	-0.035039	2.382449	0.232993	-0.938139	-0.256144	0.006174	-0.261960	0.965059	-0.972459	-0.226434	-0.055243
689	3953718													9.468406	-0.016071	2.314935	0.231407	-0.938572	-0.255994	0.006395	-0.261663	0.965138	-0.972836	-0.224977	-0.054549
690	3953885													9.497125	-0.007427	2.290496	0.229748	-0.938957	-0.256077	0.006692	-0.261585	0.965157	-0.973227	-0.223457	-0.053815
691	3954052													9.507390	-0.003623	2.257838	0.228021	-0.939309	-0.256331	0.006987	-0.261681	0.965129	-0.973631	-0.221861	-0.053106
692	3954218													9.531211	0.063130	2.204658	0.226201	-0.939667	-0.256632	0.007222	-0.261835	0.965086	-0.974054	-0.220156	-0.052441
693	3954385													9.559992	0.070885	2.161814	0.224364	-0.939984	-0.257081	0.007509	-0.262131	0.965003	-0.974476	-0.218443	-0.051755
694	3954552													9.622701	0.110945	2.146447	0.222603	-0.940269	-0.257570	0.007789	-0.262475	0.964907	-0.974878	-0.216797	-0.051104
695	3954718													9.646221	0.132877	2.100927	0.220914	-0.940563	-0.257951	0.008002	-0.262728	0.964837	-0.975261	-0.215210	-0.050514
696	3954885													9.644142	0.139318	2.079552	0.219217	-0.940881	-0.258239	0.008141	-0.262904	0.964788	-0.975642	-0.213601	-0.049973
697	3955052													9.630122	0.090306	2.074412	0.217523	-0.941238	-0.258368	0.008209	-0.262933	0.964779	-0.976021	-0.211982	-0.049467
698	3955218													9.634068	0.088334	2.039073	0.215795	-0.941595	-0.258516	0.008272	-0.262982	0.964765	-0.976404	-0.210330	-0.048962
699	3955385													9.617594	0.109476	2.080028	0.214088	-0.941952	-0.258636	0.008320	-0.263007	0.964758	-0.976779	-0.208695	-0.048470
700	3955552													9.599808	0.125753	2.022405	0.212356	-0.942315	-0.258741	0.008304	-0.263030	0.964752	-0.977157	-0.207019	-0.048031
701	3955718													9.615727	0.108661	2.037996	0.210700	-0.942648	-0.258882	0.008289	-0.263094	0.964735	-0.977516	-0.205416	-0.047620
702	3955885													9.638613	0.098844	2.021378	0.209193	-0.942939	-0.259044	0.008230	-0.263198	0.964707	-0.977840	-0.203942	-0.047299
703	3956052													9.655304	0.103358	2.000975	0.207839	-0.943234	-0.259062	0.008128	-0.263171	0.964715	-0.978129	-0.202611	-0.047031
704	3956218													9.699136	0.124991	2.051243	0.206671	-0.943528	-0.258926	0.007988	-0.263003	0.964762	-0.978378	-0.201457	-0.046818
705	3956385													9.624154	0.034420	1.956159	0.205444	-0.943902	-0.258537	0.007686	-0.262608	0.964872	-0.978639	-0.200214	-0.046697
706	3956552													9.635443	0.011734	1.869937	0.204119	-0.944257	-0.258290	0.007578	-0.262313	0.964953	-0.978917	-0.198923	-0.046387
707	3956718													9.704064	0.091669	1.964694	0.202789	-0.944467	-0.258571	0.007841	-0.262483	0.964905	-0.979191	-0.197699	-0.045823
708	3956885													9.694724	0.058898	1.973802	0.201805	-0.944635	-0.258727	0.008149	-0.262534	0.964888	-0.979392	-0.196828	-0.045283
709	3957052													9.669582	0.033880	2.011791	0.201163	-0.944748	-0.258812	0.008275	-0.262565	0.964879	-0.979523	-0.196240	-0.045001
710	3957218													9.640133	0.070368	2.013665	0.200531	-0.944890	-0.258786	0.008362	-0.262492	0.964898	-0.979652	-0.195655	-0.044737
711	3957385													9.562399	0.084259	2.055276	0.199937	-0.945001	-0.258838	0.008474	-0.262495	0.964896	-0.979772	-0.195112	-0.044475
712	3957552													9.583873	0.112372	2.092467	0.199283	-0.945160	-0.258763	0.008546	-0.262373	0.964929	-0.979905	-0.194506	-0.044209
713	3957718													9.631988	0.086611	2.039223	0.198587	-0.945310	-0.258751	0.008499	-0.262338	0.964939	-0.980046	-0.193823	-0.044063
714	3957885													9.574046	0.030562	1.978929	0.197860	-0.945419	-0.258910	0.008377	-0.262491	0.964898	-0.980195	-0.193083	-0.044017
715	3958052													9.582076	0.052881	1.975379	0.197147	-0.945549	-0.258981	0.008240	-0.262558	0.964881	-0.980339	-0.192357	-0.043972
716	3958218													9.651129	0.040731	1.970838	0.196509	-0.945676	-0.258999	0.008121	-0.262571	0.964879	-0.980468	-0.191711	-0.043918
717	3958385													9.653271	0.061682	1.941313	0.195988	-0.945778	-0.259023	0.007964	-0.262601	0.964872	-0.980574	-0.191166	-0.043934
718	3958552													9.614312	0.011541	1.868564	0.195411	-0.945911	-0.258974	0.007660	-0.262584	0.964879	-0.980692	-0.190531	-0.044066
719	3958718													9.671373	0.004943	1.828624	0.194844	-0.946044	-0.258914	0.007326	-0.262563	0.964887	-0.980807	-0.189900	-0.044228
720	3958885													9.793785	0.072026	1.852175	0.194284	-0.946125	-0.259038	0.007130	-0.262701	0.964851	-0.980920	-0.189302	-0.044293
721	3959052													9.648829	0.069985	1.877819	0.193857	-0.946250	-0.258904	0.006856	-0.262597	0.964881	-0.981006	-0.188824	-0.044419
722	3959218													9.638597	0.033377	1.862788	0.193468	-0.946413	-0.258597	0.006479	-0.262339	0.964954	-0.981085	-0.188364	-0.044622
723	3959385													9.664770	0.070621	1.837661	0.193204	-0.946514	-0.258425	0.006132	-0.262217	0.964989	-0.981139	-0.188025	-0.044857
724	3959552													9.638670	0.067135	1.907025	0.193058	-0.946611	-0.258179	0.005819	-0.262020	0.965045	-0.981170	-0.187812	-0.045077
725	3959718													9.622283	0.057875	1.917771	0.192904	-0.946755	-0.257764	0.005504	-0.261650	0.965147	-0.981202	-0.187600	-0.045262
726	3959885													9.618188	0.035173	1.934260	0.192647	-0.946912	-0.257380	0.005132	-0.261317	0.965239	-0.981255	-0.187272	-0.045483
727	3960052													9.616680	0.019275	1.902494	0.192218	-0.947082	-0.257075	0.004788	-0.261051	0.965313	-0.981340	-0.186782	-0.045644
728	3960218													9.643943	0.019438	1.862006	0.191807	-0.947195	-0.256966	0.004547	-0.260967	0.965337	-0.981422	-0.186327	-0.045748
729	3960385													9.689791	0.026688	1.877877	0.191462	-0.947267	-0.256959	0.004318	-0.260987	0.965333	-0.981490	-0.185934	-0.045879
730	3960552													9.679576	0.042995	1.898152	0.191244	-0.947324	-0.256912	0.004125	-0.260965	0.965340	-0.981534	-0.185675	-0.046000
731	3960718													9.669491	0.035751	1.894709	0.191032	-0.947411	-0.256747	0.003918	-0.260826	0.965378	-0.981576	-0.185424	-0.046115
732	3960885													9.664087	0.024925	1.845198	0.190874	-0.947483	-0.256600	0.003786	-0.260693	0.965414	-0.981607	-0.185244	-0.046172
733	3961052													9.644456	0.032935	1.853701	0.190749	-0.947510	-0.256591	0.003704	-0.260694	0.965414	-0.981632	-0.185102	-0.046217
734	3961218													9.661567	0.046350	1.876426	0.190757	-0.947511	-0.256583	0.003583	-0.260709	0.965411	-0.981631	-0.185079	-0.046338
735	3961385													9.644343	0.029568	1.909768	0.190753	-0.947517	-0.256562	0.003429	-0.260716	0.965409	-0.981632	-0.185035	-0.046484
736	3961552													9.611004	0.008072	1.924128	0.190796	-0.947549	-0.256413	0.003304	-0.260590	0.965444	-0.981624	-0.185050	-0.046589
737	3961719													9.629381	0.008772	1.935873	0.190798	-0.947594	-0.256244	0.003200	-0.260438	0.965485	-0.981624	-0.185032	-0.046659
738	3961885													9.664565	0.016096	1.973840	0.190912	-0.947683	-0.255832	0.003044	-0.260053	0.965590	-0.981603	-0.185121	-0.046762
739	3962052													9.657542	-0.028798	1.952529	0.190976	-0.947902	-0.254969	0.002782	-0.259226	0.965813	-0.981591	-0.185157	-0.046869
740	3962219													9.594379	-0.117215	1.826179	0.190894	-0.948137	-0.254158	0.002563	-0.258437	0.966025	-0.981607	-0.185060	-0.046904
741	3962385													9.682382	-0.037817	1.835300	0.190497	-0.948273	-0.253948	0.002645	-0.258188	0.966091	-0.981684	-0.184710	-0.046676
742	3962552													9.697415	0.135319	1.895691	0.190144	-0.948278	-0.254193	0.002930	-0.258367	0.966042	-0.981752	-0.184432	-0.046349
743	3962719													9.616869	-0.047160	1.860499	0.189918	-0.948303	-0.254270	0.002919	-0.258437	0.966024	-0.981796	-0.184208	-0.046313
744	3962885													9.709103	-0.027508	1.826375	0.189907	-0.948266	-0.254414	0.002815	-0.258602	0.965980	-0.981798	-0.184162	-0.046441
745	3963052													9.710591	0.022671	1.851808	0.190123	-0.948190	-0.254537	0.002690	-0.258761	0.965938	-0.981757	-0.184332	-0.046646
746	3963219													9.581922	0.109440	1.949348	0.190402	-0.948102	-0.254656	0.002555	-0.258921	0.965895	-0.981703	-0.184559	-0.046876
747	3963385													9.647621	0.060004	1.926848	0.190585	-0.948073	-0.254627	0.002326	-0.258944	0.965889	-0.981668	-0.184676	-0.047146
748	3963552													9.620129	0.034499	1.907041	0.190581	-0.948034	-0.254775	0.002005	-0.259155	0.965834	-0.981669	-0.184580	-0.047490
749	3963719													9.582746	0.003616	1.891542	0.190597	-0.947980	-0.254965	0.001632	-0.259419	0.965763	-0.981667	-0.184488	-0.047897
750	3963885													9.639308	0.007037	1.901121	0.190607	-0.947933	-0.255130	0.001341	-0.259643	0.965704	-0.981665	-0.184412	-0.048218
751	3964052													9.674824	-0.001572	1.890661	0.190785	-0.947894	-0.255144	0.001112	-0.259709	0.965686	-0.981631	-0.184522	-0.048494
752	3964219													9.645257	-0.069104	1.854532	0.191113	-0.947885	-0.254931	0.000878	-0.259553	0.965729	-0.981568	-0.184787	-0.048772
753	3964385													9.667431	-0.116381	1.858329	0.191538	-0.947834	-0.254802	0.000642	-0.259488	0.965746	-0.981485	-0.185140	-0.049093
754	3964552													9.662840	-0.080098	1.849699	0.191804	-0.947773	-0.254829	0.000493	-0.259557	0.965728	-0.981433	-0.185356	-0.049316
755	3964719													9.728852	-0.014420	1.877657	0.192026	-0.947652	-0.255111	0.000536	-0.259847	0.965650	-0.981390	-0.185567	-0.049389
756	3964885													9.628166	-0.045265	1.879663	0.192205	-0.947545	-0.255373	0.000598	-0.260111	0.965578	-0.981355	-0.185742	-0.049428
757	3965052													9.643161	-0.043678	1.893421	0.192281	-0.947396	-0.255868	0.000685	-0.260604	0.965446	-0.981340	-0.185812	-0.049461
758	3965219													9.644631	0.018491	1.884838	0.192181	-0.947244	-0.256507	0.000688	-0.261249	0.965271	-0.981359	-0.185683	-0.049555
759	3965385													9.619562	-0.004067	1.858162	0.192101	-0.947145	-0.256929	0.000676	-0.261678	0.965155	-0.981375	-0.185581	-0.049629
760	3965552													9.665226	-0.009187	1.888496	0.192090	-0.947065	-0.257232	0.000657	-0.261990	0.965070	-0.981377	-0.185549	-0.049703
761	3965719													9.641912	0.020291	1.890305	0.192149	-0.947017	-0.257368	0.000571	-0.262147	0.965028	-0.981366	-0.185576	-0.049831
762	3965885													9.662959	0.001689	1.857650	0.192342	-0.946975	-0.257375	0.000449	-0.262188	0.965017	-0.981328	-0.185729	-0.050005
763	3966052													9.690786	-0.023318	1.869954	0.192614	-0.946941	-0.257297	0.000340	-0.262143	0.965029	-0.981275	-0.185966	-0.050170
764	3966219													9.625178	-0.034402	1.956373	0.192968	-0.946913	-0.257137	0.000319	-0.262002	0.965067	-0.981205	-0.186309	-0.050256
765	3966385													9.690111	-0.013949	1.934813	0.193393	-0.946893	-0.256890	0.000332	-0.261770	0.965130	-0.981121	-0.186735	-0.050310
766	3966552													9.693966	-0.026769	1.914899	0.193958	-0.946892	-0.256469	0.000381	-0.261361	0.965241	-0.981010	-0.187314	-0.050332
767	3966719													9.679392	-0.051713	1.890269	0.194736	-0.946855	-0.256015	0.000444	-0.260927	0.965359	-0.980856	-0.188103	-0.050392
768	3966885													9.654341	-0.065769	2.008030	0.195659	-0.946825	-0.255420	0.000464	-0.260365	0.965510	-0.980672	-0.189029	-0.050503
769	3967052													9.575312	-0.040433	1.970088	0.196226	-0.946847	-0.254902	0.000500	-0.259859	0.965646	-0.980558	-0.189613	-0.050518
770	3967219													9.584615	-0.032300	1.993442	0.196495	-0.946854	-0.254669	0.000576	-0.259621	0.965710	-0.980505	-0.189904	-0.050469
771	3967385													9.631953	-0.008347	2.013387	0.196525	-0.946866	-0.254604	0.000680	-0.259536	0.965733	-0.980499	-0.189964	-0.050362
772	3967552													9.646937	-0.025838	1.966918	0.196485	-0.946864	-0.254641	0.000806	-0.259548	0.965730	-0.980506	-0.189957	-0.050235
773	3967719													9.643279	0.007231	2.016902	0.196467	-0.946852	-0.254698	0.000926	-0.259582	0.965721	-0.980510	-0.189968	-0.050123
774	3967885													9.624460	0.020813	1.977377	0.196222	-0.946901	-0.254706	0.000946	-0.259573	0.965723	-0.980559	-0.189737	-0.050038
775	3968052													9.588428	-0.057732	1.902170	0.195792	-0.947012	-0.254625	0.000825	-0.259491	0.965745	-0.980645	-0.189295	-0.050025
776	3968219													9.663341	-0.075546	1.844403	0.195200	-0.947094	-0.254773	0.000948	-0.259587	0.965719	-0.980763	-0.188750	-0.049774
777	3968385													9.765316	0.096717	1.871712	0.194759	-0.947073	-0.255188	0.001381	-0.259905	0.965633	-0.980850	-0.188419	-0.049311
778	3968552													9.593714	0.014300	1.915147	0.194730	-0.947046	-0.255311	0.001728	-0.259962	0.965617	-0.980855	-0.188476	-0.048986
779	3968719													9.678150	-0.005000	1.870696	0.194749	-0.947053	-0.255272	0.001902	-0.259890	0.965636	-0.980851	-0.188543	-0.048812
780	3968885													9.682914	0.039821	1.953535	0.194595	-0.947094	-0.255238	0.001945	-0.259839	0.965650	-0.980882	-0.188407	-0.048721
781	3969052													9.628465	0.083136	1.986014	0.194481	-0.947139	-0.255157	0.002051	-0.259731	0.965679	-0.980904	-0.188329	-0.048570
782	3969219													9.673386	0.102846	1.966032	0.194482	-0.947249	-0.254745	0.002042	-0.259313	0.965791	-0.980904	-0.188349	-0.048498
783	3969385													9.630033	0.034617	1.978508	0.194434	-0.947406	-0.254198	0.001884	-0.258782	0.965934	-0.980914	-0.188289	-0.048531
784	3969552													9.594017	0.004729	1.982105	0.194298	-0.947618	-0.253510	0.001670	-0.258115	0.966113	-0.980941	-0.188137	-0.048569
785	3969719													9.573907	0.022038	2.020941	0.194015	-0.947824	-0.252958	0.001508	-0.257569	0.966259	-0.980997	-0.187850	-0.048543
786	3969885													9.611868	-0.013227	1.997785	0.193582	-0.948057	-0.252415	0.001389	-0.257017	0.966406	-0.981083	-0.187429	-0.048437
787	3970052													9.624295	-0.033623	2.026153	0.193076	-0.948244	-0.252100	0.001345	-0.256678	0.966496	-0.981183	-0.186946	-0.048283
788	3970219													9.623314	-0.041244	1.942717	0.192563	-0.948466	-0.251658	0.001170	-0.256236	0.966614	-0.981284	-0.186429	-0.048232
789	3970385													9.662955	-0.061168	1.889950	0.192074	-0.948689	-0.251190	0.000991	-0.255768	0.966738	-0.981380	-0.185934	-0.048186
790	3970552													9.716883	-0.043168	1.772189	0.191423	-0.948890	-0.250927	0.000878	-0.255489	0.966812	-0.981507	-0.185291	-0.048073
791	3970719													9.693752	0.011730	1.844603	0.191071	-0.949003	-0.250768	0.000855	-0.255314	0.966858	-0.981576	-0.184953	-0.047972
792	3970885													9.660483	-0.005414	1.881730	0.190631	-0.949130	-0.250624	0.000757	-0.255164	0.966898	-0.981661	-0.184511	-0.047924
793	3971052													9.699005	0.060496	1.855855	0.190346	-0.949304	-0.250182	0.000520	-0.254743	0.967009	-0.981717	-0.184196	-0.047996
794	3971219													9.661041	0.001147	1.836443	0.190205	-0.949450	-0.249734	0.000337	-0.254314	0.967122	-0.981744	-0.184035	-0.048051
795	3971385													9.651575	0.002217	1.842033	0.190255	-0.949526	-0.249405	0.000290	-0.253991	0.967207	-0.981735	-0.184089	-0.048047
796	3971552													9.639841	0.003287	1.900421	0.190326	-0.949555	-0.249240	0.000293	-0.253826	0.967250	-0.981721	-0.184166	-0.048032
797	3971719													9.637191	-0.003960	1.879602	0.190165	-0.949582	-0.249260	0.000328	-0.253831	0.967249	-0.981752	-0.184019	-0.047958
798	3971885													9.629766	-0.009642	1.875059	0.189799	-0.949614	-0.249417	0.000427	-0.253955	0.967216	-0.981823	-0.183683	-0.047795
799	3972052													9.653944	-0.038134	1.889730	0.189343	-0.949623	-0.249730	0.000541	-0.254230	0.967144	-0.981911	-0.183257	-0.047623
800	3972219													9.679436	-0.032798	1.847983	0.188893	-0.949623	-0.250072	0.000713	-0.254524	0.967066	-0.981997	-0.182850	-0.047401
801	3972385													9.687110	-0.027140	1.828277	0.188489	-0.949618	-0.250395	0.000918	-0.254794	0.966995	-0.982075	-0.182498	-0.047154
802	3972552													9.685557	-0.006026	1.843936	0.188149	-0.949601	-0.250716	0.001100	-0.255071	0.966922	-0.982140	-0.182201	-0.046947
803	3972719													9.684790	-0.011584	1.854359	0.187890	-0.949576	-0.251005	0.001308	-0.255315	0.966857	-0.982189	-0.181991	-0.046729
804	3972885													9.665346	-0.040312	1.878076	0.187687	-0.949548	-0.251261	0.001502	-0.255529	0.966800	-0.982228	-0.181833	-0.046533
805	3973052													9.633677	-0.025644	1.892258	0.187374	-0.949536	-0.251539	0.001637	-0.255773	0.966736	-0.982287	-0.181553	-0.046370
806	3973219													9.616457	-0.010727	1.931082	0.186862	-0.949494	-0.252080	0.001743	-0.256279	0.966601	-0.982385	-0.181061	-0.046234
807	3973385													9.677616	0.014537	1.824905	0.186403	-0.949472	-0.252502	0.001808	-0.256675	0.966496	-0.982472	-0.180614	-0.046129
808	3973552													9.683423	-0.042019	1.817270	0.186222	-0.949420	-0.252831	0.001934	-0.256977	0.966416	-0.982506	-0.180457	-0.046019
809	3973719													9.678254	-0.036397	1.830141	0.186225	-0.949340	-0.253128	0.002052	-0.257259	0.966340	-0.982505	-0.180476	-0.045960
810	3973885													9.655623	0.004436	1.842400	0.186153	-0.949265	-0.253464	0.002130	-0.257582	0.966254	-0.982518	-0.180411	-0.045928
811	3974052													9.646086	0.029481	1.855653	0.185894	-0.949171	-0.254005	0.002232	-0.258102	0.966115	-0.982567	-0.180162	-0.045861
812	3974219													9.667457	-0.037345	1.783955	0.185502	-0.949129	-0.254447	0.002128	-0.258553	0.965995	-0.982642	-0.179735	-0.045942
813	3974385													9.654695	-0.096057	1.751161	0.185057	-0.949133	-0.254756	0.002113	-0.258849	0.965915	-0.982725	-0.179288	-0.045897
814	3974552													9.754343	0.029818	1.794506	0.184543	-0.949088	-0.255295	0.002449	-0.259311	0.965791	-0.982821	-0.178855	-0.045530
815	3974719													9.625216	0.044440	1.835237	0.184410	-0.949026	-0.255621	0.002832	-0.259568	0.965721	-0.982845	-0.178813	-0.045180
816	3974885													9.653103	-0.035764	1.768590	0.184314	-0.948949	-0.255976	0.003121	-0.259872	0.965638	-0.982862	-0.178780	-0.044937
817	3975052													9.711358	0.009627	1.842486	0.184169	-0.948881	-0.256335	0.003269	-0.260203	0.965548	-0.982889	-0.178662	-0.044819
818	3975219													9.625411	0.069139	1.890600	0.184032	-0.948847	-0.256557	0.003438	-0.260392	0.965497	-0.982914	-0.178564	-0.044658
819	3975385													9.640517	0.102961	1.883347	0.183917	-0.948852	-0.256622	0.003637	-0.260416	0.965490	-0.982935	-0.178503	-0.044444
820	3975552													9.632000	0.062025	1.912070	0.183732	-0.948855	-0.256743	0.003787	-0.260504	0.965465	-0.982969	-0.178359	-0.044270
821	3975719													9.606792	0.045175	1.899434	0.183407	-0.948887	-0.256856	0.003821	-0.260598	0.965440	-0.983030	-0.178050	-0.044169
822	3975885													9.632822	0.044484	1.885907	0.182991	-0.948986	-0.256786	0.003795	-0.260513	0.965463	-0.983107	-0.177646	-0.044070
823	3976052													9.667277	0.037474	1.845410	0.182553	-0.949114	-0.256625	0.003782	-0.260331	0.965512	-0.983189	-0.177228	-0.043934
824	3976219													9.692793	0.024342	1.823720	0.182227	-0.949212	-0.256496	0.003849	-0.260173	0.965554	-0.983249	-0.176937	-0.043757
825	3976385													9.662837	0.021555	1.810395	0.182017	-0.949271	-0.256427	0.003883	-0.260087	0.965577	-0.983288	-0.176747	-0.043654
826	3976552													9.658682	0.001825	1.799658	0.181808	-0.949374	-0.256194	0.003840	-0.259848	0.965642	-0.983327	-0.176545	-0.043596
827	3976719													9.672631	0.022568	1.762311	0.181545	-0.949490	-0.255950	0.003852	-0.259587	0.965712	-0.983375	-0.176306	-0.043470
828	3976885													9.714102	0.090117	1.772923	0.181317	-0.949587	-0.255750	0.003891	-0.259366	0.965771	-0.983417	-0.176106	-0.043333
829	3977052													9.691706	0.048677	1.729150	0.181075	-0.949729	-0.255397	0.003878	-0.258998	0.965870	-0.983462	-0.175885	-0.043215
830	3977219													9.720778	0.000092	1.695230	0.180773	-0.949855	-0.255140	0.003836	-0.258731	0.965942	-0.983517	-0.175595	-0.043128
831	3977385													9.699210	0.030919	1.709375	0.180501	-0.949905	-0.255147	0.003819	-0.258729	0.965942	-0.983567	-0.175328	-0.043073
832	3977552													9.676872	0.062110	1.718186	0.180291	-0.949952	-0.255120	0.003808	-0.258694	0.965952	-0.983606	-0.175123	-0.043023
833	3977719													9.698372	0.029314	1.728422	0.180083	-0.950007	-0.255061	0.003840	-0.258619	0.965972	-0.983644	-0.174935	-0.042925
834	3977885													9.700479	0.020988	1.742789	0.179949	-0.950043	-0.255024	0.003862	-0.258572	0.965984	-0.983668	-0.174813	-0.042861
835	3978052													9.684752	0.023356	1.753529	0.179847	-0.950083	-0.254945	0.003906	-0.258479	0.966009	-0.983687	-0.174730	-0.042775
836	3978219													9.673516	0.015099	1.746240	0.179631	-0.950173	-0.254763	0.003885	-0.258288	0.966060	-0.983726	-0.174524	-0.042706
837	3978386													9.700443	0.005910	1.741756	0.179452	-0.950251	-0.254597	0.003864	-0.258115	0.966106	-0.983759	-0.174353	-0.042648
838	3978552													9.702462	0.019161	1.756071	0.179474	-0.950275	-0.254492	0.003860	-0.258010	0.966134	-0.983755	-0.174379	-0.042638
839	3978719													9.705136	0.014434	1.783555	0.179563	-0.950302	-0.254330	0.003857	-0.257850	0.966177	-0.983739	-0.174471	-0.042635
840	3978886													9.690560	0.025180	1.770720	0.179808	-0.950313	-0.254114	0.003835	-0.257645	0.966232	-0.983694	-0.174711	-0.042682
841	3979052													9.676732	0.032440	1.823890	0.180172	-0.950337	-0.253768	0.003778	-0.257319	0.966319	-0.983628	-0.175062	-0.042771
842	3979219													9.676483	0.036128	1.813623	0.180606	-0.950346	-0.253423	0.003712	-0.256999	0.966404	-0.983548	-0.175479	-0.042888
843	3979386													9.676637	0.052746	1.852576	0.181048	-0.950388	-0.252952	0.003613	-0.256558	0.966522	-0.983468	-0.175900	-0.043015
844	3979552													9.653872	0.003926	1.810808	0.181345	-0.950427	-0.252590	0.003495	-0.256225	0.966611	-0.983413	-0.176173	-0.043143
845	3979719													9.672346	0.016826	1.806881	0.181596	-0.950429	-0.252406	0.003384	-0.256068	0.966653	-0.983367	-0.176394	-0.043284
846	3979886													9.708158	0.053800	1.790297	0.182059	-0.950393	-0.252206	0.003296	-0.255901	0.966697	-0.983282	-0.176827	-0.043457
847	3980052													9.671408	0.033515	1.807953	0.182658	-0.950347	-0.251945	0.003184	-0.255683	0.966755	-0.983171	-0.177388	-0.043677
848	3980219													9.653673	0.023086	1.828247	0.183295	-0.950298	-0.251668	0.003040	-0.255456	0.966816	-0.983053	-0.177977	-0.043935
849	3980386													9.693795	0.026503	1.810968	0.183876	-0.950274	-0.251336	0.002836	-0.255182	0.966889	-0.982945	-0.178500	-0.044227
850	3980552													9.664712	0.024558	1.818810	0.184415	-0.950233	-0.251093	0.002711	-0.254983	0.966942	-0.982845	-0.178999	-0.044447
851	3980719													9.570263	-0.058051	1.719332	0.184417	-0.950263	-0.250981	0.002330	-0.254937	0.966955	-0.982845	-0.178907	-0.044801
852	3980886													9.619737	-0.101722	1.693155	0.183951	-0.950338	-0.251036	0.002151	-0.255004	0.966938	-0.982933	-0.178409	-0.044864
853	3981052													9.789956	-0.010663	1.718632	0.183288	-0.950351	-0.251471	0.002430	-0.255366	0.966841	-0.983056	-0.177822	-0.044496
854	3981219													9.698036	0.005052	1.764433	0.183111	-0.950329	-0.251687	0.002728	-0.255523	0.966799	-0.983089	-0.177718	-0.044196
855	3981386													9.660313	-0.053386	1.808263	0.183134	-0.950300	-0.251776	0.002941	-0.255576	0.966784	-0.983084	-0.177791	-0.044010
856	3981552													9.726515	0.023793	1.889114	0.183222	-0.950323	-0.251625	0.003109	-0.255396	0.966831	-0.983067	-0.177927	-0.043839
857	3981719													9.642559	0.043320	1.889967	0.183486	-0.950315	-0.251464	0.003345	-0.255202	0.966882	-0.983017	-0.178250	-0.043647
858	3981886													9.659281	0.133131	1.922212	0.183912	-0.950287	-0.251258	0.003568	-0.254971	0.966942	-0.982936	-0.178729	-0.043501
859	3982052													9.650968	0.065586	1.947397	0.184232	-0.950368	-0.250718	0.003481	-0.254452	0.967079	-0.982877	-0.179040	-0.043570
860	3982219													9.601653	0.022599	1.903611	0.184522	-0.950444	-0.250214	0.003250	-0.253994	0.967200	-0.982823	-0.179283	-0.043778
861	3982386													9.622787	0.049414	1.892994	0.184856	-0.950478	-0.249838	0.003077	-0.253658	0.967289	-0.982761	-0.179578	-0.043966
862	3982552													9.654194	0.036796	1.898517	0.185188	-0.950491	-0.249546	0.002920	-0.253405	0.967356	-0.982699	-0.179871	-0.044152
863	3982719													9.672311	0.028261	1.906555	0.185660	-0.950465	-0.249291	0.002813	-0.253187	0.967413	-0.982610	-0.180311	-0.044333
